# time_s	timestamp_ns	wx	wy	wz	ax	ay	az
-0.002658	1787824723185108224	-0.004347489122748296	0.009274341632422717	0.015917128110857607	0.12375180791807738	9.521518062788628	0.04863913866850297
0.014683	1787824723203108352	-0.010426203812134969	0.00023788595573693094	0.012852750872302933	0.0241410407061527	9.584259765622193	-0.12026207548470229
0.015183	1787824723203108352	-0.0034417295730093576	-0.021025162034269202	0.0028325465520884106	0.06572010979410545	10.059131099356309	0.01327401620262246
0.015683	1787824723203108352	-0.006362384695248778	-0.0013698400840394245	-0.0008575234489976889	0.14314147222661253	9.881314282865219	-0.0240087319513992
0.022522	1787824723212108032	0.0018981145889129048	0.0003781304124134355	0.002079373482162527	-0.010427995481789964	9.641122025440843	0.12480397811781105
0.024675	1787824723212108032	0.003250616412190739	-0.007432609582402692	0.004916072595737097	0.12113244255117203	9.7212260397988	0.42157194929221337
0.035083	1787824723224108288	-0.004391555618095442	-0.0072632303713395414	-0.003715874463041628	0.20172704218887264	9.818422664167027	0.15114712883178277
0.042131	1787824723230108160	-0.0007290829332391366	0.008347515582915025	0.013842477982006128	0.022729959826690856	9.851645247850072	-0.07312885974759566
0.050754	1787824723239108352	0.0037968431060416297	0.0014810447737302775	0.007351524286648178	-0.06245147504871447	9.916336070873752	0.0005498949523094071
0.051254	1787824723239108352	-0.004785100749473783	-0.007464931831758205	0.005648643573622521	0.042408602242979376	9.58177283875443	0.0711299593567694
0.051754	1787824723239108352	-0.006130502772973812	0.0009796267576192147	0.0074717017913153595	0.2572449013460367	9.827763838766616	0.05217372727622299
0.052254	1787824723239108352	-0.0037171833643996097	-0.001835200315872346	-0.00865475867345188	0.06406675703637593	9.845016541491715	0.2410465729408959
0.062439	1787824723251108096	0.01865494543484777	0.012258224636972759	0.005424024681622729	0.06739020064615915	9.383939126628087	0.1875812479759154
0.079013	1787824723266108160	-0.009296445460331447	-0.019388230378078287	-0.004291435509944369	0.09436409270397773	9.744064795402553	-0.1220925712359308
0.079513	1787824723269108224	-0.015860747500708306	-0.013079195311341904	-0.001083904910097942	0.2289152954644378	9.579383439134654	-0.105651763427876
0.083719	1787824723272108288	0.010521733317003321	-0.002672476202876587	-0.003802077918563387	0.300201984677493	9.59642288323446	0.014683196615236316
0.095988	1787824723284108288	-0.0022600304371216524	0.009286660977501415	-0.008852553951188885	0.2645899420709023	9.74771675900985	-0.3558410312563417
0.096488	1787824723284108288	0.01087411293959924	0.007399332780235841	-0.0026717218945544983	0.08231083717196364	9.869504344972452	0.10185102695127216
0.096988	1787824723284108288	-0.0003592984236095895	0.006469440184929395	-0.003610549661467804	-0.05680446365563105	9.720563173334805	0.06205761722132862
0.097488	1787824723284108288	0.009262090141476772	0.0029793569914667705	0.004252694887843044	0.07940320461808663	9.671883952031664	0.15087524657305867
0.105270	1787824723293108224	0.0044314841209990435	-0.004274121827427475	0.010295784138485259	0.3079358530030889	10.03119162618601	0.28585849005821207
0.105770	1787824723293108224	0.003115424438072756	-0.0042668059154658865	0.014141215584826365	-0.08368289491506545	9.941157439205885	0.10818635132438295
0.115506	1787824723305108224	0.016846640546058528	-0.007948675664627152	0.010931813323593451	0.37389671158469895	9.670781350159606	-0.049320302840246764
0.116006	1787824723305108224	0.005830935778250503	-0.0005173538893234451	0.008438078018272491	0.18116414868737818	9.945326456359577	0.1749022518290283
0.118882	1787824723308108032	0.006288387534207977	0.001185792175576833	0.001731153746315012	0.1298506099009928	9.974042357422578	0.12385626999359171
0.129520	1787824723317108224	0.002855155698920113	0.0009485634565923561	-0.007672394560847863	0.20302817144044571	9.974614416895463	-0.0854683726931022
0.136903	1787824723326108160	-0.0019841718125227247	0.007601016735149741	0.009104453801553836	0.4133557919179747	9.627477176250792	0.04474428437516599
0.141162	1787824723329108224	0.0005503776421437041	-0.013730846222163185	-0.010127233021609217	0.22246145256013672	9.751420374174893	-0.20209552684683874
0.148967	1787824723338108416	-8.794440064119285e-05	0.0028563976477403922	0.00084142211337452	0.3467140452508063	9.588463107722799	-0.21326576943529735
0.156164	1787824723344108032	-0.010265124254816587	0.0006687811086116737	-0.004902709717672171	-0.050635922632574396	9.792982774172513	-0.12920872716245263
0.165817	1787824723353108224	0.006488465586616171	-0.0018895238796274479	-0.0014362495069597573	0.04353889289868566	9.697478521732894	0.08473036206876977
0.175254	1787824723362108160	0.007487916995213571	0.0033647332278863525	-0.0002871326559820679	0.20741249952504	9.673236228258249	0.0924397585142473
0.175754	1787824723365108224	-0.006358649795984169	0.00929739336677488	-0.010181878966117257	0.10157793149018979	9.835900264128233	0.12580048247551678
0.177401	1787824723365108224	0.00976426159204815	-0.0076250652414178235	-0.009719837671490716	0.20333020304447674	9.805194262035812	-0.033816802380013014
0.188271	1787824723377108224	-0.0009032063730479037	0.0011211249637188864	0.006017202104840058	0.10381302495647968	9.52041026416066	0.38009422248162894
0.190509	1787824723380108032	0.007619825169308114	-0.005239102564547045	-0.001603056086823896	-0.12536267460108136	9.733819419227496	-0.011136251066321726
0.191009	1787824723380108032	0.006180476427524191	0.008023014431224867	-0.003301534640013437	0.043472188645491724	9.931794531553065	-0.07760792348385741
0.193632	1787824723383108096	-0.0005609180742966011	0.017766418728810917	2.0323907049413198e-05	0.18976574399551638	9.679690481191175	0.09493132358715209
0.204327	1787824723392108288	0.00587888174676897	0.005098843471909102	0.011438582128480297	-0.011368861185820714	9.773933037575643	-0.0958768474688079
0.209053	1787824723398108160	0.004555817006951659	-0.00797644085829358	-0.0006082429449056512	0.019221112380901753	9.671028725413914	0.1425059249866152
0.210970	1787824723398108160	0.001528331824456452	0.003898654752230617	-0.0016248957050793962	-0.09098127714758616	9.597884956763197	0.22079844784559174
0.216011	1787824723404108288	0.0022538707294777914	-0.0033299656491254477	0.0019662276058812754	0.07012186968370664	9.887131770174735	0.12857066179262158
0.224137	1787824723413108224	0.0023778284060974346	-0.006758910235926654	-0.004031410864233453	0.14707410513888536	9.574169597095	0.32764953809023334
0.235675	1787824723425108224	-0.0029134609308813773	-0.014857089155015534	-0.005755097521960198	0.09507152134161191	9.62067806176843	-0.12141769248804754
0.238541	1787824723428108288	-0.00011744805588100183	0.002358650548093754	0.00830267890780371	0.06872407978291815	9.42406601408061	0.1092992900796212
0.239041	1787824723428108288	-0.00855857720741864	0.0003063470021683739	-0.0045619753317772925	-0.0296683348354672	9.841063994204282	-0.006485809324182898
0.242066	1787824723431108352	0.00660527751431997	-0.0016473841803370587	0.00033549473790245673	0.02796557614896531	9.614659224386607	0.22196461521685135
0.249968	1787824723437108224	0.0034694876828672947	-0.011897024737599876	-0.0031417711445025855	0.15882263668300733	9.834916853353016	0.18138126688063286
0.250468	1787824723437108224	-0.0029517709289720163	0.0010378796765928046	0.004881460597755955	0.09757650575169025	9.599829969232424	0.17830886753841635
0.255661	1787824723443108352	-0.0009061140038206656	-0.004478753245669288	-0.00014698731930825213	-0.17176944772381697	9.586483415192738	0.018737529702281007
0.265207	1787824723452108032	0.008145947533276836	-0.00621708389528853	-0.007942489395137885	0.31154146745425804	9.52805390079873	0.03443102682984122
0.266863	1787824723455108096	-0.0014505079463710373	0.005245887188958766	0.0009657186705542065	0.058880439457478034	9.832387866159568	-0.10977519586256332
0.269285	1787824723458108160	-0.006727630494667548	-0.009121000544302179	0.0057699876467748505	0.13514109405396668	9.982698405657615	-0.02862470744079154
0.273172	1787824723461108224	-0.010344877400295705	0.005177578205931673	0.0070026374055792515	-0.03740986293539168	9.934048685495707	-0.05242621349319971
0.283295	1787824723470108160	-0.005033316009658707	-0.007169645025529588	-0.0016762470739644627	0.23737567667844262	9.955891417041087	-0.07750386146659097
0.296104	1787824723485108224	0.007796523651303443	0.005886814942040616	-0.014836901738325624	-0.04394445606291644	9.87293635218464	0.0986296057422354
0.302667	1787824723491108096	0.007381677125808561	-0.0012335867781887806	0.002171274130887134	-0.04438072098260974	9.73498026078057	0.007577747411195032
0.320216	1787824723509108224	0.002841430018884542	-0.0036327509340677916	-0.00556942711849064	0.2506649072776002	9.629882809862808	-0.0962663593361677
0.320980	1787824723509108224	-0.0019415342932188125	0.013797385459855866	0.01888692526799101	0.045444198939594886	9.461464234771494	-0.20907379304243262
0.324578	1787824723512108032	0.009788539677926129	0.010919229937197973	-0.001763463020159381	-0.16794900064499946	9.699230594355258	-0.023913558955255917
0.328660	1787824723518108160	-0.001974940020047761	0.02473068625737173	0.016710904108496374	-0.009034731082054992	9.548330368695988	-0.08403381560159802
0.331833	1787824723521108224	0.00867538045564766	-0.010573649534944945	-0.018158061251159763	0.10323101027442753	9.722670614725374	-0.0795894239752305
0.332333	1787824723521108224	-0.003116028559951178	-0.009775258650779469	-0.0008557187933140865	0.05774219926929554	9.911635527722918	0.095904494703515
0.352118	1787824723539108352	0.0032235090692232316	-0.0009012757108330854	0.010182959848141585	0.12055914366750814	9.855961736908142	0.2919720014702009
0.352618	1787824723542108416	0.007455556230432843	0.004113051133854869	0.0032642878980322244	0.04364558803463233	9.63854965319205	-0.21325286645406244
0.353118	1787824723542108416	0.002398394257823618	-0.0008890795207378112	-0.0037273366922320633	0.14245683902660455	9.766144546974663	0.23246645708321265
0.356371	1787824723545108224	-0.008286397153842799	-0.012355518533366448	-0.0011266601384641549	-0.04658115772717478	9.55744374488732	0.07840484119353908
0.362678	1787824723551108096	-0.005121298806501649	-0.006028640462081245	-0.007372293900616693	0.2883939727970311	9.67830723085249	0.12396747644759021
0.364538	1787824723554108160	-0.008865903515892802	-0.011326457315136096	0.003099021091911817	0.05635263637220554	9.853342897553617	-0.008890022850561723
0.373462	1787824723560108288	-0.008124236254864876	0.006787452846058898	-0.004303640783282967	0.01846464586981699	9.879927857253097	-0.29138186074044126
0.380877	1787824723569108224	0.0032423884529653654	0.0013055375829766588	0.007284047850214662	0.0569910321615959	9.836750972184943	-0.29571265980409955
0.383140	1787824723572108288	0.006138049745167992	-0.004672238490438726	0.005713773684505937	0.39023999166673085	9.65079367489362	0.14095424391528755
0.387116	1787824723575108352	0.007579383491528637	-0.012441158256559658	-0.004581943777827756	-0.15017500544277823	9.939503657680136	0.08513019921117346
0.390337	1787824723578108416	-0.0030315539039477172	-0.012821186252931011	0.008883269561226955	-0.04477338929538563	9.617016478395474	0.23128182963673616
0.397318	1787824723584108032	0.009338400117207511	-0.010504579041732964	0.007749445709337438	-0.10027589777595376	9.735223006439503	0.12667012832006297
0.397818	1787824723587108096	0.0011757888817302783	-0.001046542949299173	-0.013110186519594483	0.07806038134191515	9.73981477974716	0.14417825971210935
0.417459	1787824723605108224	0.004205042798603036	-0.00790249277651449	-0.001972448234121065	0.17146018052623901	9.7900895119211	0.216343600482387
0.417959	1787824723605108224	0.0008068582853980663	-0.01028555616191302	-0.0022926525357297623	0.1385146035565594	9.719343569039099	0.08990810477652489
0.418459	1787824723605108224	0.008557577776285517	-0.004502664515535334	0.003683902153424059	-0.047231771484312735	9.815626755562015	-0.13756784287205343
0.418959	1787824723608108288	-0.011472019458604184	-0.0025491726459081353	0.011433246332350043	0.1606167223811037	9.748023310077418	0.2149712158980559
0.425424	1787824723614108416	-0.0030915500362838624	-0.007445048039418913	0.0024659152727106483	-0.1473072925208242	9.604816134219456	0.38687599143287504
0.431624	1787824723620108032	0.002892250663379881	0.004958278679121485	-5.2718556686249675e-05	0.05186235624182715	9.647684623988942	-0.09217226458831983
0.442396	1787824723629108224	-0.0012730864745261901	0.009272116023101299	-0.012697583616351062	0.19692135753934087	9.856486377541152	0.08375567765818916
0.446134	1787824723635108352	-0.0023842384715764167	-0.00484644930341381	-0.004153976653483469	0.2467637166688601	9.694366404688802	-0.13830884618711425
0.446634	1787824723635108352	0.00046092382353835623	0.01372330447381131	-0.009185529144941583	-0.09473606701697318	9.976383267745728	0.22792525192262472
0.447438	1787824723635108352	-0.0070674440712851045	0.007062257788844999	0.015238115323184387	0.21953920116445397	9.698035132664693	0.03896263580650221
0.456422	1787824723644108288	0.003912281906391375	0.006484238947707734	0.019873295650115974	0.17056838015953646	9.82110241611821	0.04053080000815362
0.467979	1787824723656108032	0.01253982930965118	0.0025407265974415278	-0.0018280232629870323	-0.13459793664811417	9.672196227873899	0.016319536726155874
0.468479	1787824723656108032	0.0013603036557657358	0.0006375339111980694	-0.002260599413094952	0.2349885501294924	9.71082984481797	-0.49579852074387654
0.468979	1787824723656108032	-0.006224724059015572	0.005009473887062269	0.0019751384384478414	-0.025744738693589078	9.606695283474487	-0.07818690642108564
0.478722	1787824723668108288	0.0050583891732563155	-0.009747238081374968	-0.0031129313559912983	-0.04631775399179604	9.638035511580837	0.003711861447768229
0.487050	1787824723674108160	-0.010021618821588833	0.0005727602718241041	-0.0012849844068897136	-0.1585586221968768	9.639071101560761	0.10399978515966381
0.488957	1787824723677108224	0.00015243603298254832	0.0055845604155074936	-0.008417265016380432	0.1465199686654322	9.760171454915517	0.2970912837407242
0.497959	1787824723686108160	0.0028234698019415478	-0.010381259702297654	-0.015656757498183037	0.2535149353234056	9.712987196508601	0.04765593632459037
0.498459	1787824723686108160	-0.004560575067844646	-0.013274732035741338	0.004090751583760255	0.2809249106464574	9.662221266152827	0.3028690763754015
0.503840	1787824723692108032	-0.0031050041123023763	-0.007502462091765283	-0.0014106443109647196	0.12921338070850416	9.594231739440861	0.05787387069331233
0.507947	1787824723695108096	0.005766357565153607	0.0032051482729630616	0.013513266950224055	-0.05084362683776597	9.731637959274991	-0.0059390819362787894
0.511764	1787824723701108224	0.003337354350082223	-0.005571858580102913	-0.004272153021548323	-0.03946094237421964	9.616538829600167	-0.004221497674849077
0.516643	1787824723704108288	0.0035702584010300527	-0.0032116755191469097	-0.0033287171260073358	0.20715077159372017	9.70332832598897	-0.038561501427355864
0.517314	1787824723704108288	0.007272421941363297	-0.0033437729217163713	-0.0037992723830615476	0.27342750066002086	9.722732219757894	-0.1407788259999357
0.527283	1787824723716108288	-0.004926975900695456	-0.008740752063760663	0.005435000470212491	0.07221546185849066	9.762035743969522	-7.267725528398855e-05
0.537827	1787824723725108224	0.00955035912391366	-0.007504275902628063	-0.012027556388007002	0.03243732714331122	9.847429129445072	0.0401874654279534
0.538327	1787824723725108224	-0.007345958399735184	-0.011828960064263554	-0.0006014991530219322	0.03724959164449216	9.681464475859753	-0.1046002090759871
0.548202	1787824723737108224	-0.0034741143555712278	-0.028298456312037326	0.010010426021255429	0.032191057765739425	9.67735612741008	-0.17030840182992088
0.553131	1787824723740108288	-0.00040851834494500466	-0.005223637188550558	-0.009685946956862057	0.23562478565221254	9.855449981228496	0.15073097193320142
0.553631	1787824723743108352	0.001788513518492572	0.010387552793198796	-0.00628242206747008	0.25735647894198516	10.007364145111255	-0.05640887877244031
0.562882	1787824723752108032	-0.008256225101534323	-0.00985646702372817	-0.010368768904158087	-0.08772244601557294	9.812419821137743	0.40757562433555655
0.563382	1787824723752108032	-0.010225936083511302	0.004549027405771777	0.0035349846985961186	0.0411467594991433	9.74693382329474	0.05880163000083979
0.569837	1787824723758108160	0.004058283925743085	0.0036124435759911887	-0.004718655000586324	-0.11802241615152266	9.621628580724586	0.004460971053745766
0.578327	1787824723767108096	0.0010635390775899632	0.0111875013650853	0.004521804171802879	-0.04633979630127699	9.867939430605121	0.11528418423425574
0.578827	1787824723767108096	0.013527338149724639	-0.0038563690490523114	-0.0005164092246382823	0.019818636148069058	9.905991334391372	-0.06988896554457169
0.590304	1787824723779108352	0.00292401261084678	-0.0036517363774977224	-0.0005342233695549589	0.22041041126432634	9.873085201111936	0.33213236596333445
0.590804	1787824723779108352	0.005172052931773917	-0.00459674061204367	-0.0018038990871295324	0.1997350950026413	9.828959485330772	0.04240759060390384
0.593768	1787824723782108416	0.0014469379636908165	-0.00048474032802569504	-0.0013726658267715006	0.25036911620020164	9.984723732315816	0.266246987704803
0.598880	1787824723788108032	0.009336111616716053	0.009823364860898205	-0.004813809785907552	0.11463800298917146	9.73465875592586	0.05952770773652867
0.602984	1787824723791108096	-0.007357357219931752	-0.00449349488193887	-0.001904609212340453	0.12949046718964125	10.032707275790262	-0.015662589852234454
0.613182	1787824723800108288	-0.0031804991657057705	-0.007026297546071865	-0.00780396390026228	0.3711036409270387	9.727417630244931	-0.21191677056504352
0.623524	1787824723812108288	-0.0027465095196689145	0.010445604739468319	0.012242826314197435	-0.06797558879187113	9.95917799302472	0.22105491216595916
0.624024	1787824723812108288	0.00024257797408900244	0.017689017642468885	0.0011686784592053838	0.38045471238420425	10.017882901828264	-0.10169210863363796
0.624524	1787824723812108288	0.008352160782748141	7.933323906699546e-05	-0.004016395448824659	0.14545422145331804	9.915422117641905	0.34147903157532034
0.625024	1787824723812108288	0.00341929790470104	-0.002534997666803047	-0.013351090672226841	0.14177285170792253	9.869633920085807	-0.033701045237524575
0.637963	1787824723827108096	0.002731512297931177	-0.01574291916127287	0.009251126594592183	0.032008488897334514	9.835002931476668	-0.07982273761081547
0.638463	1787824723827108096	-0.008125573596256073	0.0022219286551622124	-0.002392350580107599	0.004790289716696067	9.863398619706546	0.06314795213005824
0.650413	1787824723839108352	0.006097819737709511	-0.0004334876062435059	-0.0003122311395830566	0.1144587653280056	9.716451740642139	0.18144978974028364
0.650913	1787824723839108352	0.005237588591649903	-0.002572307057878637	-0.005890319602238681	-0.1194552441111741	9.80963412161683	-0.2988690154243577
0.653937	1787824723842108160	0.005728573004560046	0.008429538608561268	0.00580446089243638	0.07746673987462885	9.81724807305557	0.1635905441443294
0.659653	1787824723848108288	-0.0008411175175550475	0.01602773808101627	0.008151363489185949	0.08697940755367722	9.814877516550043	0.035644392600373345
0.660153	1787824723848108288	0.004213385977507022	0.02028240003883545	0.004677703657330997	-0.1329176611391956	9.741565643369208	-0.02704840085813013
0.661963	1787824723851108352	0.0036745121139896246	0.004489632345395346	-0.0004421098357974215	-0.007874449752844334	9.65861136352762	-0.046465286816975614
0.673058	1787824723860108032	0.006521205233176753	-0.0004912034413727917	0.013496143909202044	0.09196245458921665	9.655044003967388	0.025305567640445014
0.678980	1787824723866108160	-0.0004149160201206798	-0.009367431460797757	0.0002401020587017546	-0.14734365537879646	9.585703683013127	0.373724249904088
0.679480	1787824723866108160	-0.007060517784835218	0.007458078663269384	0.002970284989113848	0.17961850203525134	9.723543533190025	-0.120535339647274
0.694158	1787824723881108224	0.009590598435591137	-0.01862518877624091	0.003719927523666642	0.10195876002916118	9.84139724542691	-0.17342040338410733
0.694658	1787824723884108288	-0.019349420515232224	-0.001113391035408739	0.013941999599262785	0.11880413149653446	9.986526179696805	0.0688665328280575
0.696805	1787824723884108288	-0.003036620885546098	-0.009601986804896382	-0.014342822131855977	-0.046552662577001955	9.852459719757293	0.06923192259965188
0.705660	1787824723893108224	-0.00013669833605514013	-0.004078554889077705	-0.0023519067070387413	0.23784823545257727	9.632289857646018	-0.177081252548132
0.713932	1787824723902108160	0.0001242567676454748	-0.009324729134998782	0.00044271416508953783	0.13456832492734186	9.705638143390368	0.31350684578284527
0.714432	1787824723902108160	-0.001552280326500395	-0.0031153978295707027	-0.013009041562811118	0.07166635688687456	9.731930081586128	0.14268077455984926
0.722729	1787824723911108352	0.004784611811597045	0.005524184571444171	-0.0019771174030545264	-0.1556846416136682	9.974268060766164	0.22394440817656278
0.726634	1787824723914108160	0.005890291216104659	-0.005352710002089929	0.006301774281022825	0.20926312979145306	9.717125034447584	0.10834091821760741
0.727134	1787824723914108160	-0.014928081508092196	0.0075886577100840675	0.0032200207119663106	0.1927908164086888	9.48117233261173	0.10429899598238751
0.738395	1787824723926108160	-0.008683382432751734	0.0038470442809755874	-0.008498674204622008	0.13027217348489845	9.777676155727368	-0.14788177309521922
0.738895	1787824723926108160	-0.0006582011811372914	-0.00175826214413811	0.0024145902231889208	0.12611307786552003	9.772208509354288	-0.10456091045488311
0.739395	1787824723926108160	0.002157686714157793	0.005226594832990538	0.0026415214320923545	0.1446715738500994	9.702309942522692	0.1312370947076263
0.745178	1787824723932108288	0.0029206491528482067	-0.0017997027475562422	-0.006474786356036125	0.23341358954412167	9.743277902421017	-0.2393838199746094
0.752709	1787824723941108224	-0.006516031201302585	-0.005503016020857838	0.009242089559357859	0.19655777190271795	9.932199038627406	-0.00017753660395489201
0.763921	1787824723953108224	0.00811691238396278	0.009316736934309415	0.005223696400283873	0.3103642349556106	9.715194036168192	-0.03948860449133294
0.764421	1787824723953108224	0.003837860089673713	-0.01593231048525158	0.015025086407257051	0.06980729668526027	9.771110127115438	-0.17640878532827534
0.767698	1787824723956108032	-0.010960828042053634	-0.01962260724956467	-0.004511040699818185	0.26205546342920427	9.810295569815153	-0.09151768798083479
0.768198	1787824723956108032	0.0030684693176756977	-0.01604609649456542	-0.007631667258087889	0.37396993187562294	9.778883716764552	0.05337789640835223
0.775888	1787824723965108224	0.007364018356757009	-0.006880280762290045	-0.00027146045350130693	0.2389372377022913	9.60100078087852	0.18530662095929942
0.791505	1787824723980108288	-0.018779248396583553	-0.007444325522740989	0.0007503147271591906	0.02741866152130363	9.567570941686503	0.11383517680222106
0.792005	1787824723980108288	0.007172627861895604	-0.004291678077253172	0.0006117872894856531	0.09483030259953706	9.982497763949592	0.27273586886174944
0.795554	1787824723983108352	0.00792466197832769	-0.002272911662683067	0.0022359861111559925	0.19810058802476188	9.688397200021019	0.21989080532258137
0.808421	1787824723995108096	0.0007491774737073916	-0.007277539201236108	-0.004633686461928324	-0.143964023243809	9.862177972735727	0.09506066881516992
0.808921	1787824723998108160	0.019437181714664777	0.0070124680753679185	-0.009425884923376872	-0.07697495036658346	9.941252132118256	-0.012310442439246089
0.814478	1787824724001108224	0.003492955528626825	-0.009766973030420425	-0.0029422856924934287	0.19951392045739463	9.57907369390257	-0.1461323753680723
0.830398	1787824724019108352	0.013313923004665518	0.0006384897402475434	0.006586827649616134	0.028802473354050638	9.762194955162396	0.007941733140279267
0.830898	1787824724019108352	0.0012356913046376646	0.007201898533158834	-0.0008637511683643287	0.21717811987808278	9.943631700599123	0.21045215364906933
0.831398	1787824724019108352	0.008354431766067536	-0.0014728840099242078	0.001494632553820977	0.1901936299646077	9.645062946513232	0.3665444949790567
0.831898	1787824724019108352	0.004201256564793614	0.003717440909139559	-0.0020803900068408787	0.08474193308837626	9.984034837830258	-0.2438484889778033
0.832398	1787824724019108352	0.0042559810622805	0.0032440488503901947	0.00044103581073145	0.020750727582551226	9.6533230487218	0.07056773353921228
0.836589	1787824724025108224	0.015049830222729276	0.006525440937144533	0.005831236127382018	0.09793711223962175	9.871968516372041	0.13785600180749874
0.840541	1787824724028108032	-0.01254005950542496	0.0028292040157925644	0.016541706876695275	0.032651131152086114	9.683360367785973	-0.04128989069941221
0.852534	1787824724040108288	0.011617961757649177	-0.0008006753502808929	0.00102237020884111	-0.23692913994874665	9.892334621779685	-0.0156350816732351
0.853034	1787824724040108288	0.0069655927920285665	-0.001959697984579588	-0.0015443582256713605	0.17685055154440646	9.59831730991845	-0.16883501497163914
0.862802	1787824724052108288	0.005843249124427779	-0.005540635282594208	0.00893834486020609	0.23637702740672878	9.499150851536992	0.12535977371764087
0.863302	1787824724052108288	-0.008413936861565819	-0.01840839387811036	0.007548760063730582	-0.01718216671522388	9.680816351454562	0.19436907204012402
0.863802	1787824724052108288	-0.0056795325286971374	-0.013395000456229272	0.0009418820838939751	0.025618237124352385	9.654868309261563	0.20764385408249908
0.872871	1787824724061108224	0.003765711114139198	-0.015703911371261096	-0.00628198376207211	-0.005513292449708315	9.782085709971215	0.29170993979206117
0.873371	1787824724061108224	0.0013299563121194039	-0.0051411085958331946	-0.0061336989779466125	-0.12409539249224545	9.805821862775911	-0.044279667540307446
0.876960	1787824724064108032	0.0009968391887290793	0.010398568981143188	0.0008915467819085886	-0.03599288975465367	9.44558732365503	0.0612160155343554
0.891778	1787824724079108352	0.004573026626350057	-0.012207632699609873	-0.012728030055794553	0.010873266854915464	9.531485204468504	0.10117216999196513
0.892442	1787824724079108352	-0.006150135396797307	-0.0024778917853582774	0.0015349178521028124	-0.02343511552756626	9.728403388581373	-0.05411193208241485
0.900885	1787824724088108288	0.013174125283913662	0.004182413641193753	0.008752744813357938	-0.14442691131401458	9.75190727828453	0.03470921010446014
0.902312	1787824724091108352	0.0005360029555649467	0.0033338237913314197	0.0017540866595147325	0.19042107988342571	9.820201155617209	0.11954175296596418
0.910465	1787824724097108224	-0.013829835812134116	-0.01803958558825934	-0.009699116816982555	-0.020518594596171433	9.889780064036021	0.23288910066219923
0.910965	1787824724100108032	0.0020374198501437258	-0.01803214592886967	-0.010276019171010484	0.10317815263765284	9.72619740652505	0.281339562708523
0.918972	1787824724106108160	0.004376095351451883	0.006092200643793111	-0.002252920363429851	0.09080241861337138	9.670891587640565	-0.14099344844957498
0.937061	1787824724124108288	0.0026784199988489164	0.0029077692077817486	0.0095992694172894	0.030548782480831524	9.692408000307152	0.20644849066875454
0.937561	1787824724127108096	0.002948044533659854	-0.0037330852187800623	0.0044727884406390575	0.15302217846029548	9.709902437710227	0.10892763500320868
0.938061	1787824724127108096	0.0007656273634434746	0.0022662553486655925	-0.002881174164837219	-0.009126163236305357	9.862682936428108	0.05595354702892489
0.948707	1787824724136108288	-0.0014966124765129346	-0.004426339810152977	0.014025842734739639	0.2874371954630066	9.455026642927187	-0.2139201976612006
0.950311	1787824724139108096	0.0012702755874611875	-0.010348857722697107	-0.006792374302916012	0.14124966827234356	9.782610065865372	-0.2619672403967951
0.955851	1787824724145108224	-0.0006308903660258658	0.005838456042627902	0.0042351153065762785	-0.050511575685424345	9.43041224471029	-0.1313821280614724
0.958913	1787824724148108288	0.005953092364123367	-0.013828850786274901	-0.009709709636350495	-0.11863015415612643	9.719588275248382	0.03933434994616397
0.964313	1787824724151108352	0.0013596404813179521	-0.007630410782546309	0.004213628345865015	0.0815259927995502	9.59555803718259	0.2593301607503676
0.971716	1787824724160108032	0.002203762681571501	-0.0060820230907381026	0.015495294738818001	-0.11274388471136833	9.632432466880978	0.23350581052524302
0.979128	1787824724166108160	0.008198263968416193	0.003867667207792747	0.0036179795007342903	-0.014969751520937893	9.860748497781705	-0.04863848465646654
0.985664	1787824724175108096	-0.006401487384498849	-0.006242812439500228	0.005148318837458183	0.03914529282411751	9.796610331089582	0.01696665302412049
0.989218	1787824724178108160	0.0112369730192024	0.012377493005258054	-0.002401667013760697	-0.12915136696135965	9.725664740604735	-0.10772783689784461
0.989718	1787824724178108160	0.013756675056193223	-0.004587971394393523	-0.004503308493510497	0.42812354101388017	9.655197112266821	0.06269922862234602
0.995481	1787824724184108288	0.0015136532572321828	-0.0026970529954599863	-0.0028380744473755987	0.027019681161892545	9.545218810910116	0.033702569719415765
0.999690	1787824724187108352	-0.002522476098787235	0.007277112426640517	-0.0026171601966420116	0.15750539601434405	9.753609919156423	0.08613636178451875
1.003514	1787824724193108224	-2.0888113021714147e-05	0.010884815694482144	0.0022159115561789836	0.07898299727847535	9.601001543392117	0.14635809439321124
1.011618	1787824724199108096	0.007914620862710633	0.005990984381033488	-0.0034273353818722843	-0.10097178132118315	9.701289155674903	0.11017244799696448
1.012118	1787824724199108096	0.017378245876209765	0.007241136204884286	0.004191398565451397	0.07297248660057816	9.86332353893154	0.037108575398574165
1.025425	1787824724214108160	-9.942049078338752e-05	-0.013880545618694999	0.0065894565460687315	-0.17874154181947588	9.631184812597672	0.06331164983130871
1.034361	1787824724223108352	-0.00524162621535065	0.0004910915098554974	-0.013207634048552212	0.2488951548203044	9.85717393795559	0.11989195504079461
1.034861	1787824724223108352	-0.005375332462257669	0.001938228232955357	0.005610041516094267	-0.1333867838924968	9.686020377832257	-0.043746334310556016
1.035361	1787824724223108352	0.0016426017342687149	0.0014450740645770704	0.0032282499068736	0.42022930583190626	9.878830263531492	-0.2262525549544019
1.045906	1787824724235108096	-0.006121896606581429	0.010167849314742565	-0.0011452249649770668	0.27263567145053036	9.690565786559956	0.27597820481939545
1.046406	1787824724235108096	-0.005823798977605813	-0.0017174654629707466	0.005849652290353552	0.012384091469268665	9.796023693945136	0.20209997545244962
1.046906	1787824724235108096	0.0019762810919428473	-0.006863440202900454	0.00482376247467604	0.27300475041762484	9.701092789946724	0.30305693363849995
1.054599	1787824724244108288	0.009259604115509707	0.00954431642970876	0.011884141637096786	-0.04900341951952712	9.661357420035708	0.1092076866188848
1.066908	1787824724256108288	0.0035928094164251914	0.015602736558055578	-0.007249839108940337	-0.018180504895522198	9.558206732234877	0.23081793912204812
1.067408	1787824724256108288	0.001848685763612409	-0.00893172158072623	0.0021075560904038892	0.04098354592924366	9.922698385293266	0.12262586549138793
1.067908	1787824724256108288	0.008039257548953987	0.0033533929657988764	-0.016164240927994584	0.10581413183973219	9.517849621080991	0.1606621274981338
1.081357	1787824724268108032	0.0004843258268995038	0.010709788264524747	-0.0022496475883031697	-0.1257671843564398	9.69848198952086	-0.06973942719694168
1.081857	1787824724271108096	-0.0037205449253451526	-0.0039407129329567265	-0.01180814916931081	-0.09496073497294188	9.871420360895206	0.09399766090294957
1.086549	1787824724274108160	-0.0024915804417950586	-0.013101771248858715	-0.013906952574855212	0.3034238004351145	9.636901431734866	-0.04424035201199947
1.097357	1787824724286108160	-0.008465211500930324	-0.017026657716746343	0.0010601832253237596	-0.09882309023856768	9.538673876319423	-0.00025055839001297125
1.101206	1787824724289108224	0.009020680886291111	0.0015837708937198752	-0.005821397919591718	0.2047307951512496	9.587859385615149	0.022355685396586313
1.101706	1787824724289108224	-0.0021769479735204377	-0.002772338964077242	0.00574306294871255	0.047971131354097564	9.643407476500869	0.022752245762427497
1.102206	1787824724289108224	0.007119330747889911	-0.005597824469765975	0.00163772108165087	0.04967733517233117	9.62167392486225	0.05379079228150162
1.119841	1787824724307108096	0.022552073065894636	0.0024477823421988182	0.002579534855043738	0.2864371717021687	9.912800600325944	0.0550081027931221
1.120341	1787824724307108096	0.0058974645871320616	0.006421173424530299	-0.001770244269310373	0.032268961276307934	9.660162753493443	-0.18543511124076123
1.130082	1787824724319108352	0.013402783056737888	0.008728634603653855	-0.0027684924166543373	0.1304652463052958	9.80060087896115	-0.12493831037318098
1.133003	1787824724322108160	-0.006745716183299211	0.003975934603681629	0.0038212210568882216	0.30318908371741654	10.108347879346667	0.25622487260900306
1.133503	1787824724322108160	-0.009653064513677504	0.008609938156572025	-0.013061932545513879	-0.0036446178261690665	10.036546803872756	0.13573527660814794
1.134003	1787824724322108160	0.021257811884699575	-0.010381211665151371	0.007240023761034183	0.32661555544833243	9.746012263824333	-0.060981780863487434
1.134503	1787824724322108160	0.013902647519396856	-0.0035113161755543445	0.005755299539815457	0.5074197440766696	9.973840699559158	0.309922797951533
1.148816	1787824724337108224	0.0014062282845268576	-0.008481591313866778	0.013205839234760344	0.07267779653114113	9.66297319453753	0.1416044263663265
1.149316	1787824724337108224	0.003294162492018826	-0.009159766434334396	-0.003960894003319576	-0.09202434685329124	9.782051671806771	0.24270685144613718
1.158755	1787824724346108160	-0.002707420003042176	-0.01899181770683056	0.005006221593683797	-0.05387433586585523	9.969967888751928	0.1465324914783886
1.163937	1787824724352108288	0.011268404622420904	-0.005103239328654244	-0.0033751342215621026	0.11960738641801971	9.852595281030986	0.01247648409419043
1.166096	1787824724355108352	-0.006602302813166457	-0.009089055962368508	0.0061817418974129245	0.19204083439883973	9.85271919869959	-0.04215135089604463
1.176196	1787824724364108288	-0.0022183921635203206	0.0022437613938679534	-0.00470787043858796	0.25587957175767906	9.69508073047259	0.14662182862326434
1.177322	1787824724364108288	0.009782465978534082	-0.0018732694968701883	0.007380375762750184	0.2891528251982826	9.77420310360355	0.2903543717330667
1.179408	1787824724367108096	0.003458357710787791	0.007424953152136465	-0.002907804297266631	0.09873139112738347	9.790963396820123	0.04763792824233134
1.185795	1787824724373108224	-0.008685243292333217	0.0009239315807849974	0.0073551699323496375	0.020671343658409114	9.576377244980845	-0.14579914752369894
1.194573	1787824724382108160	0.0031346677477428362	0.005357342999629091	-0.0012402661210162628	0.13411992965410804	9.98483465006881	0.13639245221457424
1.199345	1787824724388108288	-0.006536536740133231	0.0026961452413665904	-0.006170605531917591	0.3350336744713023	9.677283008869427	-0.1582946542882051
1.205018	1787824724394108416	0.008320897070407035	-0.0008912242081392844	-0.008396672520995489	-0.1601681402489212	9.86219560178272	0.0721840256512644
1.205518	1787824724394108416	-0.007886173894787527	0.004014042945206444	-0.005792412954733189	0.05285274829293185	9.823536429940868	0.08251028643446409
1.229152	1787824724418108160	0.006875331621772104	-0.022385351959174616	-0.01606623492439242	0.2391784598136682	9.668020519816693	0.1176283891798427
1.229652	1787824724418108160	0.00575630722790297	0.005537045172434197	0.010101809548569944	0.11641265437841755	9.89286344023808	0.15211542380642776
1.230152	1787824724418108160	-0.004194286208399162	0.0035801846239677643	0.0023668169441151857	-0.0732730698431079	10.020298654951958	0.0879476729441721
1.236347	1787824724424108288	0.005193359607076727	0.006214033762120457	0.0008166937428994782	0.3145397078498252	9.692553106273014	0.18961281422968493
1.244136	1787824724433107968	0.006534674386308017	-0.0029195177462693436	-0.014081552290316258	0.11706555029470694	9.618460582937953	0.35524505698650993
1.254786	1787824724442108160	-0.005951398033776084	0.011498704754697676	0.017372583311314454	-0.0033853461794254025	9.632748572784779	-0.22897650038604705
1.258363	1787824724445108224	-0.0011383836148598108	0.006915023363330542	0.0016609943508181443	0.3555319639411484	9.70393392451035	0.011818833004378304
1.258863	1787824724448108288	0.0006953771451162882	-0.010162215201381417	0.008688976057649624	0.13724160176775316	9.89190579941419	0.05561032274938894
1.264912	1787824724454108160	0.0034976723240528573	-0.007234448998192053	-0.013901552107205112	-0.07737154816126023	9.621917090669934	0.07091676763100169
1.265412	1787824724454108160	-0.024575127320482535	-0.010840275074086232	-0.00041418436934244666	0.07972332103592225	9.919752584451045	-0.3464794684276137
1.268990	1787824724457108224	0.0005440766474983074	-0.006252217132972957	0.010155343622158178	0.10190622984462133	9.50005899017	-0.019234657684494554
1.277215	1787824724466108416	-0.003580436669032918	0.0010564090826620982	-0.0017676407336409438	0.20493290446546478	9.687003897299848	-0.010094364033421947
1.279222	1787824724466108416	0.0018669992345734143	4.256801471343486e-05	-0.0108719281468084	0.15966141723931995	9.76709875464652	0.05486970986817167
1.293744	1787824724481108224	0.011916709974142256	0.006936056186339366	-0.002036718485262764	0.07467540058907858	9.671909634839656	0.06831996981678655
1.294244	1787824724481108224	-0.006779530829890425	0.0013663333903129575	0.0019298697717835666	0.1222530028699074	9.934593398401448	0.03277718484166822
1.294744	1787824724484108288	0.012164898632546862	0.017278130518098945	-0.0061294872159070625	0.16779963018887603	9.467449822317423	0.20430292413851606
1.295244	1787824724484108288	0.0012616907503206045	0.01734499763286875	0.004684341676973574	0.20053819032247833	9.740419620341243	0.09252183476285183
1.328694	1787824724517108224	-0.008009124686751513	-0.004604968363156509	-0.0024720679002927896	0.12494985930276177	9.698473934763767	0.04684077900999995
1.335242	1787824724523108352	-0.0006264590200434609	-0.004504684585302327	0.005510133305762714	0.24541192795272454	9.45441341216608	0.09548734522676366
1.344725	1787824724532108288	0.0067687117842118874	0.004905566549726664	-0.002309542159941381	-0.3458640348524331	9.737924341288707	0.28232490514224196
1.353011	1787824724541108224	-0.0018333945135978137	-0.0037242153295199147	-0.001764465967196259	-0.16454314457499358	10.138700840886308	-0.010215067671590694
1.354953	1787824724544108032	-0.002343492914847603	-0.013116148641027982	-0.0024360448326758767	0.23575781083375397	9.645494004998133	0.16979758436690917
1.361100	1787824724550108160	0.002721347293068809	-0.0034017469553922473	0.012425052052083387	0.13979454965365218	10.037102707082957	0.04801982657288497
1.361895	1787824724550108160	-0.013443077847408422	-0.011762461347356857	-0.007172673144700459	0.2298256329582028	9.547445953703122	0.18087730931999033
1.371001	1787824724559108352	0.007368747985228461	0.005882080004809853	0.001045400007662683	0.1642012024912704	9.99408755075109	-0.13781652484622556
1.374147	1787824724562108160	0.002848116035093237	-0.00952285713505754	0.0029524836083413162	-0.22320950215673668	9.800896210510592	-0.01962359796700279
1.374647	1787824724562108160	0.00455638585610987	-0.0013252495507087424	-0.02048067985372387	0.2751955962541956	9.557022109156675	0.15443042171905866
1.379425	1787824724568108288	-0.01049857095130791	0.00905129104076345	-0.0006144587705678592	0.16218251421867924	9.780603552316338	0.10076707894614756
1.383067	1787824724571108096	-0.0015172432058809114	-0.01316289852496963	0.011971629586001285	-0.034809568953458006	9.722096780092683	0.06248769155115057
1.392476	1787824724580108288	-0.00010555460893422145	-0.009817944070692145	0.0031589080249342836	0.0027240032840897127	9.847655911374035	0.22431256603647576
1.396376	1787824724583108096	-0.0003687612335791089	-0.002733760559659146	0.005473781602407668	0.05316104504755829	9.751288322827524	0.02849641312313583
1.405271	1787824724592108288	-0.011720667824373096	0.013371621718868904	0.0030940512059317226	-0.022180555993067258	9.814628972951573	-0.10386778022484204
1.414792	1787824724604108032	0.0026761012436488612	0.0054294129065870275	-0.0043203797167006164	0.21450689784656526	9.842498153859625	-0.12983665707324687
1.415292	1787824724604108032	-0.007649740065609307	-0.0010066954244218876	-0.00174930065917954	-0.07351288042449328	9.723327174314976	0.17679515158641632
1.424731	1787824724613108224	-0.0005513774290625225	-0.003843292564430329	0.005358911198125791	0.09509289561405643	9.699466710341845	-0.21758258117243076
1.425231	1787824724613108224	0.0021072225284404626	-0.012639197804228458	-0.01846806707135436	0.22170784751784467	9.842855598635627	0.311182741538528
1.431843	1787824724619108096	-0.0034102425153298296	-0.011853168111932192	0.021224987397020157	0.17710470760866684	9.594217478835215	-0.10021129290858127
1.432343	1787824724619108096	0.007376854047785204	0.014006153320439706	-0.00262417311352806	0.06845534419500277	9.86407304125297	0.09091317267786184
1.443402	1787824724631108352	0.0016437779754472346	-0.009161561924868947	0.00697235449316852	-0.05984223769324472	9.677332296774559	0.26275805206288794
1.443902	1787824724631108352	-0.004178849874507203	0.0024853073607118224	-0.005523323004993768	0.050384952061374666	9.627409118871887	-0.02811915515311611
1.448668	1787824724637107968	0.005669661253963818	-0.005858837604798781	0.008759019084257962	0.4418832257057355	9.84148225864944	-0.0017073167231666311
1.456075	1787824724643108096	0.01325771185553817	0.001796033595604016	-0.004636635064630921	0.2064647213800817	9.663615561688122	0.11994494957870257
1.456575	1787824724646108160	-0.0037953768530533164	-0.002890853625581113	-0.003119613887750522	-0.06983382379748382	9.661091580944298	-0.13250288925357606
1.460335	1787824724649108224	-0.015720127660470148	0.000550283302752376	-0.0071439695340718345	-0.11502694528975815	9.905459193315144	0.03558102944929152
1.475818	1787824724664108288	0.012335325050528003	-0.005719673340982225	-0.002107850944429711	0.024783185201410797	9.697701431907463	-0.0678849530510153
1.476318	1787824724664108288	0.017395700507108723	0.0002718651130253851	0.0035610276688577726	-0.11604334433788432	9.514825621629502	0.09123261942126464
1.476818	1787824724664108288	-0.009136211923843512	-0.0052039571698790435	0.004705926523018631	0.1815598220030547	9.61699590381164	-0.16084725707332523
1.485617	1787824724673108224	0.0017502174403410688	-0.014873057123687791	-0.00280112134935775	0.060532445591756245	9.61737965640853	-0.09617572486409612
1.488699	1787824724676108032	0.003536790454325003	-0.007411558475277775	-0.0008825860101396554	-0.10681770180007738	9.931422464847147	-0.12236978972303884
1.497581	1787824724685108224	0.006728152549961573	-0.0050115004306481884	0.007634665376403199	0.0007531579758145585	9.885266115812755	-0.019674384434089857
1.498081	1787824724685108224	-0.008087913480931054	-0.0028865625201977565	0.00018737655798889216	0.08299295822466507	9.530778183834041	-0.10663267055541174
1.498581	1787824724688108288	0.016020137625378413	-0.004326127312272924	-0.0012386128450400354	0.07464627380345404	9.719113441296532	0.00925379253857872
1.539416	1787824724727108352	0.00024343017047871333	-0.01284157566872338	0.010522617679190579	0.11181429918711878	10.093337289624783	-0.311319370837197
1.539916	1787824724727108352	0.007885034956989159	-0.004448854483970903	0.008029796253969	0.12282693838114982	9.859171650832286	0.09508214235199398
1.541665	1787824724730108160	-0.0036744757544224403	0.0005254722301194341	-0.0069118611804508505	0.11363941959717405	9.62195660446795	-0.12480310115930972
1.545217	1787824724733108224	0.01039316063920281	0.0034333615212198674	-0.0043444167155556645	0.22908047471849782	9.882184377404428	0.06977247850003905
1.549124	1787824724736108288	0.01949268369729781	-0.004741946234581041	0.009861168516516057	0.04528678863655563	9.662077537052646	0.1293611005582021
1.554218	1787824724742108160	-0.002891879739157233	0.011913882088608349	-0.004651242975626064	-0.06537217957158514	9.74829867815908	0.01845294545689813
1.558530	1787824724748108032	0.012263075877470957	-0.01770587388087013	-0.0031284171450734143	-0.12859587679686219	9.80447082645582	0.0030731319819813988
1.571121	1787824724760108288	-0.000945134196149506	-0.003287447440599483	0.002540026611643922	0.1486708834545416	9.913373728329665	-0.06455481630273757
1.575647	1787824724763108352	0.015526471926265755	0.007589232941087863	-0.013413976072993428	0.005300406247707404	9.691674873725002	0.11015161427567445
1.582887	1787824724772108288	0.0008566276139938118	0.0012188152044647997	0.008084052394880416	-0.021486849385394288	9.521011933106188	0.10912009045248644
1.589195	1787824724778108160	-8.526204118372586e-05	-0.003027765863829773	-0.0019862663146538893	0.11204347113342752	9.839811610687267	0.10441778756577141
1.589695	1787824724778108160	-6.922105502158689e-05	-0.0029931052768502483	0.009229494085300482	-0.02596244564859078	10.081855386261134	0.22019525715079757
1.605508	1787824724793108224	0.0036903599433541997	-0.004985331149024584	0.0041613327167591	-0.04620548165277383	9.68421235398112	-0.1355985406819686
1.606008	1787824724793108224	-0.0036877516825531633	0.005882819991809563	0.006698091596702564	0.2546678240291947	9.688577305190261	0.06174632129330652
1.606787	1787824724796108288	0.012181968681148719	-0.007412435882726376	-0.0020382179226686274	0.02646125744763169	9.857036160743847	-0.06459835039571238
1.615995	1787824724805108224	-0.010199226241079554	-0.023878124660182187	0.008902961664354942	-0.04609829730735686	9.745943428696043	0.08208077774290137
1.616495	1787824724805108224	-0.005251458182311271	-0.001549015428801158	-0.012144243919073839	0.17308172459442067	9.844056833794545	0.03873473965512149
1.620127	1787824724808108032	0.00849616880576131	-0.0029620078197532137	-0.004160096374349381	0.196354796359134	9.51607384100758	0.1309689678173963
1.634522	1787824724823108096	0.008301416895204425	-0.000527863283401497	-0.002708803642336148	-0.03179790731041088	9.60621651372373	0.2773656436481102
1.635685	1787824724823108096	-0.008886142001703623	0.0015066038668509543	-0.012583083089398919	-0.11708848738129987	9.453469010303106	0.05641311882122412
1.636185	1787824724823108096	-0.010559337202092468	0.0005073044874093557	0.0011794260902246155	0.11281202040010029	9.766712508261449	0.2884990725148566
1.645127	1787824724832108288	0.0012141519445304813	-0.004665880040145284	-0.0011559273530339156	0.017759400685172275	10.001575465764066	0.018319405860435393
1.651249	1787824724838108416	-0.004031743389091354	0.003418347859686889	0.011192029303922551	-0.22846760936950844	9.827748089319883	0.3095223963521378
1.651749	1787824724841108224	-0.006684647257861727	0.004469939298258693	0.000439398430544264	0.1552737015471528	9.875595369880166	-0.0550832535858475
1.657869	1787824724847108096	0.004958770041199283	-0.012356295439144117	0.004221359188083659	0.15356756788300513	9.467607063546385	0.07612879757657333
1.659748	1787824724847108096	-0.001336999487832755	-0.005178286828889337	0.010338904784827505	-0.16959987261707216	9.907475820219686	-0.14137595066930597
1.671293	1787824724859108096	-0.0016165860583287122	0.01719048207852909	-0.009440573288227484	-0.02929641165024699	9.80497017684197	-0.08966947995762525
1.676013	1787824724865108224	-0.004665654544220796	-0.014022324334564785	0.006515532473944685	0.005846042567845627	9.625338125759958	0.06619353375056775
1.676513	1787824724865108224	-0.001139087779749632	-0.010385100844485965	-0.008522896885945676	0.07562026215082274	9.709128958246946	0.021338339821911863
1.684549	1787824724874108416	-0.003136547549837598	0.004568043715533373	-0.007204938214656854	0.10781138199926926	9.83259071296406	-0.15374059046333027
1.686546	1787824724874108416	-0.0007455112097025361	0.01289682082028301	0.014021710266647147	-0.06561547897876611	9.843038397291421	0.18912247354972
1.687203	1787824724874108416	-0.003029709319507881	0.007969322748145977	-0.016610805144989405	0.2780758214212677	9.861959864783223	0.02446870533010446
1.700957	1787824724889108224	-0.001965257010764419	-0.00562058803441927	-0.00020982406442754682	0.050695133193700184	9.982454748206857	0.10648821615184847
1.701457	1787824724889108224	0.005744390132170972	-0.002879483994376715	-0.005585490404751242	0.20375040437641498	9.561574248576356	0.09632509121413178
1.705929	1787824724895108096	-0.010403143208895715	-0.005721838925776973	-0.0094966231484296	-0.21902995388387375	9.914703384804628	0.17740241744686733
1.709315	1787824724898108160	-0.0027090757229432843	0.002000190028663574	-0.005095137946669566	0.18990943983034017	9.926635497857031	-0.041667775005425865
1.729774	1787824724919108096	-0.002019887007929052	0.01813438121301827	-0.003601350944449186	0.1987162599708771	9.752377746114652	0.10477490373002968
1.730274	1787824724919108096	-0.008252575529495468	-0.012825120886108434	-0.0024350906675409327	0.29508434869709166	9.685697421431597	0.13865158514735929
1.730774	1787824724919108096	0.006315818446396785	-0.0034463486214092827	-0.003849020793068841	0.04904397118488467	9.947268012726374	0.2602539646783515
1.731475	1787824724919108096	-0.011354347894782088	-0.00771074465999906	0.0037173634136107884	0.11752764986474801	9.79806540298996	0.011074769000777043
1.731975	1787824724919108096	-0.018680961617408485	0.008222966824416467	-0.002447392683590515	-0.031910729854139605	9.977914889200626	0.04921871695784565
1.744814	1787824724934108160	0.00793264203248146	-0.001647889996781771	-0.003909851759502679	-0.015631721591594455	9.964643831053559	-0.15037634309513592
1.745314	1787824724934108160	0.003508597535542742	0.004150704051700134	-0.0036945523085103083	0.24162990459564207	9.744240877975631	0.42757342001882975
1.757879	1787824724946108160	-0.006265409676387822	0.005071103869272884	-0.0014395544454787082	0.3452717376421845	9.606243489095549	0.09201585588463729
1.758564	1787824724946108160	-0.002125236303681348	0.003331922671962581	0.01074737225372316	0.12801430238702075	9.432200073787072	0.12728766559784288
1.759233	1787824724946108160	0.0029075800592453633	-0.012936549877366107	0.007335600674814721	0.17133285934150527	9.552661897654176	-0.07418841951376319
1.763783	1787824724952108032	0.0021257968650216963	-0.0015916728206051174	0.006821280380085578	0.1262986372760382	9.638820562311025	-0.009759520318703835
1.765264	1787824724952108032	0.002880833752455937	-0.01751567363794134	-0.0036689119012496157	0.103822193524225	9.733543351751145	0.032705107547163687
1.783121	1787824724970108160	-0.004790281083642905	0.00038432995938313217	0.01617656167412874	0.33625908043274333	9.836461108952069	-0.003803855475197994
1.783621	1787824724973108224	0.0020810616604610885	0.0036536854678520373	-0.003825656959260317	-0.10603803598534972	10.050946816433063	0.0953303710579236
1.788138	1787824724976108288	-0.001215146385232086	0.016275689252482187	-0.012770682946979495	0.062482383945034733	9.709949127633543	-0.04689144089522075
1.788638	1787824724976108288	0.0021863328487413286	0.003629799060251901	0.00032769845994130154	0.15141045020398797	9.691111457591127	0.13609887639711304
1.803097	1787824724991108096	-0.010128185434406183	-0.003305097028366027	-0.009048775572583384	0.2488415165019685	9.406618449678941	-0.011820199223596624
1.807514	1787824724997108224	-0.007992572944746371	0.010667186281815233	-0.008018153016011822	0.1841690605455366	9.721570961077935	-0.18910826665405606
1.811358	1787824725000108288	-0.004641835489281697	-0.0037364696518078734	-0.000710474054072408	0.06502987061083682	9.725166817999757	-0.10172947632451584
1.811858	1787824725000108288	-0.0006055413118291979	-0.009239655096659022	-0.005900680933182032	-0.026312193357590954	9.733831760692501	0.004615441135754836
1.817529	1787824725006108160	-0.006078140113935247	-0.007222018110431129	-0.0027984117419005503	-0.05527893679894354	9.664462829750224	-0.01931314250847524
1.827295	1787824725015108096	0.0010700843111092955	0.0025143031587382884	0.0035873192045643948	0.23525511627447188	9.892630644008102	-0.04314665719305971
1.828457	1787824725015108096	-0.0024753916325506073	0.008823061619989402	0.005859601575768417	0.19041650789612186	9.65006047679916	0.10602072825785205
1.832448	1787824725021108224	0.008489400732656907	0.018186333867809674	-0.0005621728161908086	0.04325089610125142	9.770149216867793	-0.11957439794278239
1.841322	1787824725030108160	0.0016831071983048843	0.004093578491981607	0.001813808289184512	0.09143450904669378	10.17565024304589	0.22012278684776426
1.847508	1787824725036108288	0.002130635826536041	0.01522569938745147	-0.001382016491746468	0.22547015223911382	9.564043056391261	-0.03666068649193142
1.853212	1787824725042108416	-0.0034197102091808613	0.009316452083082195	0.01643986630246043	0.3290513906406296	9.676315723261338	0.011080480601029931
1.853712	1787824725042108416	0.003075632521678321	0.010607610097219635	-0.003942442198486112	0.09709653253012097	9.835099807370266	-0.1484244708974599
1.860970	1787824725048108032	0.004662267571691852	-0.006234945581704167	0.005006656650091989	0.3649159432941554	10.017063421632164	0.2182155016448577
1.866155	1787824725054108160	-0.002789692730444594	0.011629404784392512	-0.00022015139487053698	0.23452239833229505	9.607629404936043	-0.04608637453101926
1.873133	1787824725060108288	-0.00526667673799323	-0.010710789112490779	-0.0009438271129969904	-0.1835399912460411	9.660572885819205	0.09437065172184286
1.873633	1787824725063108096	-0.0020109320919339964	0.009650225164864894	0.014365162272053313	-0.040416224769484616	9.726065340822915	-0.09298947073413516
1.888735	1787824725078108416	-0.0010290542539137817	0.015763689058213615	-0.010450852586177123	0.04834126162422017	9.803388267719175	0.07545159067365514
1.889235	1787824725078108416	0.0010383062594077346	0.005303132773533075	-0.006351580721524532	0.11948000270478432	9.92999556298442	0.06022486292503706
1.891028	1787824725078108416	0.003972015341937893	0.004351042152112519	-0.005733477024227944	0.07084799525984486	9.927618351734722	0.15073172010209773
1.903232	1787824725090108160	0.0032013390420131253	0.005514295694472213	-0.004032218902568009	-0.18766448293415167	9.481313872593827	0.05921497416225675
1.903732	1787824725093108224	-0.004902772065904406	0.002302239828801249	0.011723522239256615	-0.09014930412428557	9.879583916970214	0.17011947893633597
1.918892	1787824725108108288	0.0004161116954987351	-0.004435632309046343	3.510346354444894e-05	0.07165147997758167	9.683903632036873	0.06906362560199623
1.919392	1787824725108108288	-0.005122548758681098	0.0013863503329189654	0.0008317626992654309	0.09824744126999822	9.869406448862753	0.024690875465527225
1.919892	1787824725108108288	0.0030969490232142217	-0.0014872761576750178	-0.008204501456311512	0.19645709074577622	9.611915481181603	0.1222055975620461
1.920392	1787824725108108288	-0.006081450745624156	-0.0084993869279842	0.010265592366020072	-0.0036193890707549303	9.520461093251024	0.43380086414242247
1.921225	1787824725108108288	-0.013063439566416288	-0.0022943647623193853	0.0063010074205432035	0.09407278836058716	9.72676863940657	0.07654841288284825
1.934502	1787824725123108096	-0.005309622508063101	-0.0075632837620021025	0.013871551374943726	0.06853498668572713	9.769836556434543	0.1878929981227052
1.936481	1787824725123108096	0.0013902344507133533	-0.0013672810030537744	0.0006351157152065999	-0.07294610668299821	9.645841294569012	0.11886345592252898
1.942037	1787824725129108224	0.003099754678828412	0.011162154997495776	0.00043902614368997053	0.018246326918153005	9.890579706495767	0.11472434180794497
1.942537	1787824725132108288	-0.00444375719545146	-0.0059101187915042526	-0.0001853281010786957	-0.1922682141906461	9.774104474191514	-0.03519257805493007
1.954551	1787824725144108288	-0.0064671641270844845	-0.01253547249397494	0.0024223301059927028	-0.01861479464011033	9.790959006427318	0.17830644985579425
1.968379	1787824725156108032	0.012754587980881128	-0.008114826277822878	0.009028876820327804	0.05347389637148974	9.683150396862413	0.12397624315492459
1.968879	1787824725156108032	-0.016164402062761124	-0.014355767076549756	-0.011399126692001547	0.33875436193785774	9.822003203407334	0.35612501088484017
1.969379	1787824725156108032	-0.0003980082958151985	-0.0021663317799557	0.009801460958308307	-0.02258996584021454	9.70446420595188	-0.014179054625793705
1.975833	1787824725165108224	-0.010088429395967227	0.0012073994959897196	-0.00520103024692321	-0.08286318831049438	9.711759058804612	-0.22968981937594757
1.983832	1787824725171108352	0.00793509774559965	-0.00845598124132513	0.007177110059661751	0.16774868004467117	9.804698656252897	0.06826562135079665
1.984332	1787824725171108352	0.012900295907149025	-0.001167168144173845	-0.0028807126883605527	0.14504218652315395	9.716582098630358	0.14565173334628434
1.988038	1787824725177108224	0.005729166811085106	-0.0019072379196615659	-0.0075736426515054895	0.245700872646946	9.696423992571912	0.040716006489030385
1.990490	1787824725177108224	0.007807102699572636	-0.0178292500951326	-0.018511582228932854	0.28244599381990315	9.76306001749687	0.26396063400189984
1.997072	1787824725186108160	0.004763341303374558	-0.018247615880085374	-0.001821824667016112	0.3869938339498866	9.802045224185397	-0.25492420476525324
1.999785	1787824725189108224	0.0032410187539251823	0.009884119336611251	0.00022009317214576952	0.03291755340370076	9.645844915025485	0.2990086497651945
2.006952	1787824725195108096	-0.011143180431833254	-0.003989657351011896	-0.014856943705639497	0.015437194952981279	9.689468442505103	-0.025166012113015494
2.007452	1787824725195108096	0.006186155684478811	0.0049864017390522505	0.0042803482376063086	0.08543129466223676	9.685461368902637	-0.20842107771178522
2.017183	1787824725204108288	-0.015671435643294845	0.004557034446725632	0.024233830610089477	0.028456252452357736	9.796520748379017	-0.03202772393176189
2.026112	1787824725213108224	0.007605369374737979	0.005152029751153021	0.0009369622470254275	0.1325036359906937	9.767835458553158	0.00294994430479998
2.029505	1787824725219108096	-0.0004641798149336109	-0.014839252054913479	-0.004597257270467411	0.23705040294776747	10.006813199213804	-0.29096172221234756
2.037342	1787824725225108224	-0.008407356533271834	0.0013495881328219556	0.0004902243221829787	0.13275888642468398	9.74004172589247	0.2630547755021782
2.037842	1787824725225108224	0.0008646662273025688	0.0066740371661071175	-0.004725890409687422	0.1967542374034501	9.856619100487732	-0.16118248112447633
2.042853	1787824725231108096	-0.00016366617247046822	-0.005068339927821772	0.00918205610305139	0.0010221967179337155	9.914742456752688	0.14105864252713401
2.061634	1787824725249108224	-0.00912097030459932	0.006944652147303757	0.009583225140778959	0.23304265019845216	9.48747862938186	0.21830977349429082
2.068165	1787824725255108096	-0.0013283135865713492	-0.0005447575862934511	-0.004041057441017573	-0.03700028032286859	9.511221155007751	0.12486764941489008
2.074544	1787824725264108288	-0.0014543426664240914	0.013932676283394755	-0.0004522227695924029	-0.16207155383584096	9.958233954338727	-0.1479614370502378
2.078275	1787824725267108096	-0.003506258310207522	0.0035744189596867266	-0.0040368146784771144	-0.008730983384233018	9.853829136468779	0.06451645301200934
2.089449	1787824725276108288	0.0002520109815114802	-0.012776891611043787	-0.004750789767028535	-0.17200581440812457	9.801279076665205	-0.05124172393551988
2.089949	1787824725279108352	-0.0036520233575757367	0.0033565099026740637	-0.004791664840243599	-0.07202067596492745	9.53903576337137	0.020526728286558438
2.092503	1787824725282108416	0.008110960775320763	0.009257466810640772	0.002715095036772055	0.3459847676106481	9.85848410193126	0.1600750996161468
2.097159	1787824725285107968	0.00701079148372077	-0.007669162246113287	0.010431300555685183	0.011155771160509115	9.719796400475989	0.07813765841374799
2.102073	1787824725291108096	0.018116667350133633	-0.0021038067383999854	0.00684575684870022	0.2006426936644241	9.70809136628366	-0.1923873489809409
2.112522	1787824725300108288	-0.01730705492946387	0.00502772273114302	0.013616915123701676	0.30978862686156183	9.769752837991145	0.04672541351113025
2.117738	1787824725306108160	-0.0034572557576857	0.017257148294117692	-0.006436541153874021	0.12961004857476072	9.660465280108603	-0.22719330461193335
2.120670	1787824725309108224	-0.009901870966802385	0.006396222408770671	0.007720304307032106	0.340716318115145	9.427862181739437	0.07881573771222214
2.128864	1787824725318108416	-0.005457259413257214	0.0029598987085049607	0.0022937243059794076	0.09645455659927883	9.690965295136168	0.24325574909467312
2.129364	1787824725318108416	2.5853200713180463e-05	0.0020592849926150737	0.001707655150727625	0.054977050611472386	9.832682801521324	0.09383197488397454
2.129864	1787824725318108416	0.0035031366080606986	-0.007136031902085553	0.0011492052422696544	0.16309733141719623	9.765566427798344	-0.03156415505324693
2.138635	1787824725327108096	0.005537795223579036	0.010595474146408258	0.00856291848928777	0.21656773120761186	9.789468463176645	-0.30229578130640533
2.152557	1787824725342108160	0.009159599020471976	-0.008693433980801189	0.019395793930647567	0.11871512611283594	9.572640511611345	0.0015625454654510235
2.153057	1787824725342108160	0.006481577148670294	0.0049849587146701515	0.007725943859301148	0.006279448599362608	9.818472471398959	0.059379479254000445
2.153557	1787824725342108160	0.001733590019399306	-0.0005130229834045723	0.009172657103493529	0.045752317452235514	9.863135030935876	-0.14721403964211877
2.160116	1787824725348108288	0.0002277840243424826	0.010409127410489504	-0.00373569603477807	0.09995007673329474	9.584581595761358	0.018827553250210797
2.160616	1787824725348108288	0.00026689626504293305	-0.005230001812068431	0.0062129842823112486	-0.1625948469729493	9.723835590090417	-0.08069487484362525
2.167456	1787824725354108160	0.011571666620394739	-0.01128789825588331	0.006635609708777938	0.0651753054063674	9.899707604411791	0.03671437180853038
2.174585	1787824725363108096	0.007545233832264393	0.0025074529332849505	-0.0005933158003438198	0.11937042556590957	9.783446517986901	-0.06891264566413705
2.179804	1787824725369108224	-0.0011972783255409774	0.0015997401130299117	-0.013539553792494644	-0.07021746924398078	9.912829669210307	0.2280838896359108
2.180304	1787824725369108224	0.013486671923399956	0.006654404582085004	-0.012291587938907915	-0.003995231570689303	9.711374876981395	0.06134468621522835
2.184323	1787824725372108288	0.005828005216865401	0.0014151096609042117	-0.013078205388345185	-0.0046290876630911	9.69754721041736	0.15176340734702556
2.197998	1787824725387108096	0.0030428151577697486	0.003723382911256717	0.006428321955797859	-0.19170192309281334	9.949903889095808	0.34122327459332974
2.202637	1787824725390108160	1.9655652352547524e-05	-0.010759848287887414	-0.004442849711136842	0.30159398362728557	9.63490899351199	0.2544794721838801
2.203137	1787824725390108160	0.016146218254268915	0.012057231136312404	5.0676368802627415e-06	0.0939935433093542	9.92007500421911	0.2712368594742192
2.203637	1787824725393108224	0.004423931033846017	0.003974730658828666	-0.0023770600344115963	0.148298594078767	9.71899657514179	0.06836786552255054
2.207670	1787824725396108032	-0.004475185055903285	-0.009921716610665399	0.018200210437890683	0.3147870952451	9.761544748337272	0.11315097495990893
2.218364	1787824725405108224	0.02044257395236655	-0.006190159781816414	-0.0027899346173012175	0.2809915068471471	9.995887367295543	-0.29071787633848434
2.224783	1787824725414108160	-0.002214170426856496	-0.0029003699885444896	-0.01489588429353268	-0.11031936345913405	9.777462535308468	0.049849063675263296
2.225283	1787824725414108160	-0.0118115207344084	-0.008614706543915742	0.007216965335957128	-0.1642982158527974	9.687521586588312	0.14326993765251755
2.230122	1787824725417108224	0.0006280237574755416	-0.0034558265021114036	0.0029502135747558112	-0.20507190130855923	9.78375374937563	0.022586986651007297
2.234926	1787824725423108096	0.0014869448330191882	0.006996771678728991	0.012057081823873444	-0.04638818787383957	10.05438609949812	0.045091979965462964
2.241060	1787824725429108224	-0.0022106947806909347	-0.003830487410311128	0.002242971337580111	0.25095471243793704	9.446061483246464	0.2087284853707275
2.258036	1787824725447108352	-0.005533877595423008	0.0007840354474349031	-0.0018114241734226533	0.045032710994647	9.839783860763937	0.09493833616311045
2.258536	1787824725447108352	-0.0034472542761239964	-0.02695295167058753	-0.0012870148716158589	-0.05970591601961389	9.601168695630362	0.18451260034167272
2.259036	1787824725447108352	0.004290441439483617	0.004196584920721446	-0.006923341944365859	-0.11024843068760957	9.746970046645076	-0.09593406138878993
2.270238	1787824725459108096	-0.005141519406793384	-0.027126466012891235	-0.001083878980874722	0.21847690813470338	9.733431581794909	-0.21670620135445606
2.275292	1787824725462108160	0.004016501715703806	-0.0025187703784395805	0.003928794634179693	0.24851666079415882	9.992748457257827	0.02180389735203526
2.275875	1787824725465108224	-0.0029286534174006494	0.010667597391155605	-0.005146075602444572	0.20495107775089216	9.670320377286828	0.02154826617726261
2.276375	1787824725465108224	0.004062418203979835	-0.009841778804012331	-0.0029082971462331656	0.15905325568855608	9.732841668382466	0.12790191702446962
2.292757	1787824725480108288	0.0037089618098252743	0.002655987647963582	0.010830294827640504	-0.000905790357858649	9.764550909365843	-0.0009735622307186775
2.293257	1787824725480108288	0.003281495149700718	0.0019085869519060823	0.0012748162748995471	-0.08598799026229606	9.789365091139613	0.31764801067325166
2.313754	1787824725501108224	-0.014215774487021576	-0.002343887977904421	-0.016075589106084476	-0.21651501165710746	10.199598292746668	0.2969900764856438
2.316577	1787824725504108288	0.003457609358119042	0.003948584850858726	0.0044174980389380305	0.06878313019688227	9.719998213633788	-0.16092268572677107
2.338325	1787824725525108224	0.0014437181862962016	0.0004871244713425104	-0.00777307720793207	0.14079259414833442	9.587641784735094	0.04670828133090377
2.338825	1787824725528108032	0.008027935302119628	-0.0016599278027576675	-0.008540582537170374	0.11640300090564093	9.805697993008636	-0.06254443932743745
2.342037	1787824725531108096	0.001877854539621841	0.001163900078357191	-0.005709817351348758	0.11698365012851036	9.868498811376188	-0.36615243164094535
2.345442	1787824725534108160	0.003280287085622422	-0.006347543096859589	0.0005503463854423788	0.08423229567584821	9.80460310330928	-0.04231625291656796
2.347497	1787824725534108160	-0.0017337247039067474	0.0014372697639954007	-0.0023214537607706863	0.14261014647006598	9.59018760143128	-0.11261493936497996
2.348652	1787824725537108224	-0.0098136806617023	-0.0016517723405385127	0.0013052771796958702	0.010032711704912448	9.862720300550668	0.03204862044279125
2.360254	1787824725549108224	0.007247951701283613	0.007370807700462526	0.005518735911145618	0.14144387603397374	10.055548815165219	-0.05407647068449558
2.364424	1787824725552108288	-0.004247315718533201	-0.008266605677443046	0.010138203489384072	0.06496880249441525	9.781034287705952	-0.08802094851389061
2.374068	1787824725561108224	-0.0004653881265705954	-0.0036316927565662074	0.0007113114049397507	0.09388551174798476	9.739528565498812	0.02951919570405676
2.374568	1787824725564108032	0.010229926937010332	-0.004182284114976509	-0.013080934612324993	0.42800009125750793	9.638806555482278	-0.2699911714212883
2.378617	1787824725567108096	0.004420485098085299	-0.00022935238724748735	0.016496688725427144	0.15818401039686483	9.627135903232556	0.1195415556570918
2.384808	1787824725573108224	0.006495779690632851	-0.005514239714881316	0.00018283556343890435	0.1173945406709265	9.55184852151008	-0.38843259199559954
2.389049	1787824725576108288	-0.017208954875572214	0.0050743950699201875	0.00412680217328301	0.14886792740535812	9.75173350464007	0.07111220591301218
2.393068	1787824725582108160	0.006707501577610931	0.0036985587920275753	-0.009035534225110822	0.06852133284446708	9.95455254716368	0.027564787885735395
2.403908	1787824725591108352	-0.009493368405526895	0.0007615934335355555	0.0031811450011181735	-0.03376213245062552	9.723661125055052	-0.03548519913342889
2.407646	1787824725597108224	0.004416708624553759	-0.004046656133985161	0.018513759771799632	0.28356324228721297	9.572992677006159	0.05637217980509003
2.408146	1787824725597108224	-0.006162851225075627	-0.0016867501073914023	0.010637235475639368	-0.12310249932404531	9.65883292781579	-0.05876847287140727
2.414746	1787824725603108096	0.011074486017058792	-0.009373351233000444	-0.005879607176670835	-0.31095058424219696	9.70487709696277	0.12631890466319093
2.415274	1787824725603108096	-0.006619666412942734	-0.0052414450630764615	-0.003524225100051848	0.007628524423373334	9.91848917161061	0.029938750937901437
2.415774	1787824725603108096	0.007191041324123588	-0.000485466489881047	-0.0030496358933531204	-0.05552733616351345	9.695887652472184	0.3084323462271047
2.416274	1787824725603108096	-0.001541509432432715	0.00512575164561028	-0.007047643946860709	0.21693975328007079	9.669862122230313	0.08808741537819537
2.432242	1787824725621108224	0.0010473532582777401	-0.006925862844024913	0.01311205387535167	0.13153385956553293	9.868707701214122	0.048696605426187665
2.432742	1787824725621108224	-0.005562565628240838	-0.00015490841725969534	-0.00835605056426255	-0.1442390970064304	9.50933850328025	0.08229506850269805
2.436673	1787824725624108288	0.0020995267921793417	-0.0028874351874105344	-0.014519743696477266	-0.03323888333145315	9.797601905119981	-0.022824972981651995
2.441169	1787824725630108160	0.0003541746657917342	-0.008954012373054501	-0.0025808542213477865	0.10501961394156864	9.718098812785515	0.12956397284357205
2.447814	1787824725636108288	-0.012143715121398807	0.011907101896506843	0.0029254412452269863	0.20502491240332027	9.72243507176791	-0.09261452152936696
2.454142	1787824725642108160	0.007257322375549055	-0.009899459556179735	-0.012820987752921044	-0.0637079688899098	9.86471134310402	0.11864347351713372
2.459624	1787824725648108288	-0.006762562402902652	0.0015308690313683966	0.008028953845024426	0.0662645769626416	9.686522604160174	-0.05087660022571375
2.471615	1787824725660108032	0.008809563133783086	-0.00988064514974647	-0.008112211992540391	0.0002570567533465018	9.48575794596606	-0.04483592606629165
2.473138	1787824725660108032	0.02739602952904295	-0.007127469335526593	0.006622221507455421	0.038870551373985984	9.797130044203087	-0.08738454449030802
2.487707	1787824725675108096	0.0073271282535185955	-0.007951344988080731	0.010338630921683174	0.17102297873886124	9.527954334409147	0.06997530501046471
2.488207	1787824725675108096	0.007835735268387312	0.001023619413712844	0.006360567161967694	0.18904683179173354	9.611173240696194	0.0026974321195828016
2.494939	1787824725684108288	0.0021805862354692496	-0.0042028498813011786	-0.004410386215768989	-0.03811368194660261	9.786591107471644	0.10594171576156118
2.495439	1787824725684108288	-0.0071290102090187215	-0.009385581766208198	0.00489151616491542	-0.04251098517019285	9.648063417501744	0.22705539276997444
2.499176	1787824725687108352	0.0014783682274892276	0.001321319676580716	-0.008570473109008913	0.2216796489781598	9.774044385876362	-0.22386692808579622
2.521907	1787824725711108096	0.006620276851917457	-0.008002739652283037	0.012738681204583475	0.1401823597569306	9.898189578153834	-0.07548723234578504
2.529473	1787824725717108224	0.013514012265051823	0.0027520658604537583	0.0005037182065523032	0.058734727651061844	9.563532988412026	-0.11678587294829829
2.533423	1787824725720108288	-0.004740583096773735	-0.004427572681281655	-0.005523647735680524	0.1582527584643656	9.748538043876476	0.0011100254767037604
2.539442	1787824725726108416	0.001956223891604245	-0.006398047742362449	-0.006847340718452206	0.27990745138741757	9.42833121486747	0.10848809139587781
2.544778	1787824725732108032	0.011119176128413974	-0.00056545906843284	-0.003405891618145659	-0.10029092847605657	9.448759373927835	-0.12156885282350585
2.545278	1787824725732108032	-0.010995139365226727	-0.016499685757005868	0.005891272442312931	0.19703131205830565	9.71835414156803	0.032197309833043405
2.546882	1787824725735108096	0.0017050212716252272	0.0070063471387042655	-0.002659656467862087	0.1946278538801159	9.921415610872845	-0.03420132323744648
2.547382	1787824725735108096	-0.008347812224428715	-0.003159868937944578	0.002201832307186555	-0.1633953168318395	9.742212534732198	-0.21996502309180546
2.566169	1787824725753108224	0.0055907555023430935	0.006415885357234013	0.007734464937658509	-0.060977233319176885	9.825361584474138	0.0010438490034117426
2.566669	1787824725756108288	-0.015063765008475557	0.006162059548891034	-0.006868701269462215	-0.11012286080896586	10.043042210959722	-0.06758437529864586
2.567169	1787824725756108288	0.002375793575553476	0.011769699072652542	-0.0027103803392321863	0.3205925377544349	9.947164814848863	0.13282447292949728
2.569467	1787824725756108288	-0.00021357729672439614	0.009490325313107523	-0.010129080701299647	0.20141762239689737	9.87791617416511	0.30038441151970185
2.582740	1787824725771108096	-0.0019412314547303075	-0.002452392077765261	-0.002554970192892634	0.17255974951544728	9.840590692039056	-0.02605851281424
2.589355	1787824725777108224	-0.0012896374596954128	0.005472871733594785	0.002129939722096531	-0.03698625719014312	9.603711640267846	0.12569728442017858
2.591144	1787824725780108288	0.004026625087826838	-0.008866894087693212	0.005431745644318589	-0.030041676365821654	9.51243638281624	0.04252504480269653
2.592483	1787824725780108288	-0.0010285811657991663	-0.00252996575114407	0.006067129141637614	0.10295993684249999	9.866664341455019	0.23938748724127498
2.607410	1787824725795108352	0.010718756560085852	0.0001048551851069863	0.008938710999652892	0.0405349220329688	9.567269013600624	0.26524886613759435
2.607910	1787824725795108352	0.006450472515026005	0.004146376196631551	-0.008734617083487373	0.13122890574080975	10.00518338494251	-0.06188198056348859
2.608410	1787824725795108352	0.005155512625340576	-0.004028155676204587	-0.0034746633035246124	-0.11274182076261323	9.890459279588134	0.18629706854389314
2.608910	1787824725798108160	0.007684433035853333	-0.0006115684242169082	0.0043102498786378495	0.2946387801424635	9.652675654794157	0.03790882851590963
2.614483	1787824725801108224	-0.0008094525231622413	0.002342029288940394	0.006602064907201614	-0.1009672762686835	9.596473275112409	-0.020301023027239573
2.620534	1787824725810108160	0.011759756253213703	-0.0025281782382034516	0.00038396175193019074	0.4379074686600488	9.595886119015804	0.15093371838905195
2.630042	1787824725819108352	-0.0035610283624202387	-0.010813540974208988	-0.005454894992925932	0.07595397067581731	9.986241441795235	0.04218441826123968
2.637176	1787824725825108224	0.0027279712331333967	-0.005277947421452076	0.0028599735660418614	0.20261773636927033	9.762707191936803	0.27380064574932583
2.644293	1787824725831108096	0.0008242249231234286	-0.00508673340012229	-0.006767313285303667	0.24309901574658516	10.007306977396176	-0.1203178263764074
2.644865	1787824725834108160	0.0013819211154661075	0.003467220454569326	0.011702035193105772	-0.19049305858822166	9.936202730621353	-0.04783462528795586
2.654202	1787824725843108096	-0.004794607352737561	-0.0033886930969020622	0.007847350436677943	0.08148581391782854	9.673513481925863	0.265640608565032
2.655551	1787824725843108096	0.005121037072452657	-0.0075981257597590186	-0.004608914926724308	0.24983959227100133	9.765890227223464	0.13367544628097855
2.668643	1787824725858108160	8.42729314480966e-05	-0.00341849186441784	-0.007740344929954976	0.08719930632539465	9.805212805319039	0.13198428061450024
2.677274	1787824725864108288	-0.0028013373607314236	-0.013703564017155221	-0.0005558034691007576	0.35462705456826493	9.5224723964468	-0.07719620328275513
2.677774	1787824725867108096	0.0033992165585912055	0.009127167394271978	0.0038152059257085496	0.2477813954831376	9.682629323198697	0.1508833228745589
2.678274	1787824725867108096	0.00020798308545549356	-0.0075545251507418	0.009095674823318271	0.3104694792727966	9.866632742332952	-0.08161742325259226
2.680868	1787824725870108160	0.0013665196507088588	0.0031798672508088744	0.0013658540463074402	0.38826084652046616	9.533287613991726	0.03175468770459611
2.692176	1787824725879108096	-0.005983342872981462	0.003424154408517401	-0.0007705902621376574	0.08046808207953951	9.841243932083668	-0.023009394484971274
2.692676	1787824725882108160	-0.01062442960676241	-0.005139860847881322	-0.004482830569422737	0.18634244279484638	9.784551522928524	0.32631431034896174
2.698112	1787824725885108224	0.012885020779836734	0.007454485900281611	0.008066158455151972	-0.07401797040504926	9.855538253809696	-0.2287247904520781
2.700676	1787824725888108288	0.011880104190818466	0.013362964458387678	0.007039026903825259	0.013799067427689646	9.638026420766868	0.04432030021161149
2.707606	1787824725897108224	0.007827636982272767	-0.00708278503048798	0.004324304710757492	0.08572745234031191	9.689612364118123	-0.04414447685130752
2.708106	1787824725897108224	0.0009112795098550108	0.008071238474266535	0.00037931837208736257	-0.09919823802436473	9.524989255083097	0.19341353650542523
2.716441	1787824725903108096	0.0008994519922763544	-0.014044354088534949	0.003395338450451745	-0.0026971486731222905	9.931457789954955	-0.22879516453259693
2.720357	1787824725909108224	-0.024342580522333828	0.0033231382170014257	-0.010016346008030863	0.3706555024380359	9.754534071329537	0.15219494248333246
2.727876	1787824725915108096	-0.008640360770994735	0.01285656178183893	-0.005906030556875371	-0.03287728338472881	9.525179340975026	-0.08261173620427555
2.731418	1787824725918108160	-0.006407234198941092	0.0074524483938352365	-0.007835365659472801	-0.36346735764854343	9.88682323904567	0.1656366257246269
2.731918	1787824725921108224	0.007491343446379566	0.0022264452975269836	0.004980983271915024	-0.04288869113213811	9.767877935293122	-0.05484296601238735
2.745411	1787824725933107968	-0.008731264342129428	-0.005182742880212342	0.0009719908812581372	-0.23362326200537722	9.62013447163396	-0.02599016064380401
2.746610	1787824725936108032	-0.002923745356502081	-0.0044848372616493526	0.00981496198835879	0.1421279940310271	9.623962910301572	-0.031202703797379452
2.751027	1787824725939108096	-0.008523488047538065	0.008721513763733969	0.0007293604368167954	-0.08088325650585727	9.95632903867504	0.10426375889121184
2.768720	1787824725957108224	-0.003392676129322587	0.013177694980519667	-0.00781712843886286	0.15477670977123342	9.647639774618513	0.03524085230376385
2.769220	1787824725957108224	-0.009798878153917593	-0.004235783493743804	0.008963217664522618	0.0744449246505647	9.745566157175897	-0.11212417849732767
2.773229	1787824725960108288	-0.006372417669371169	-0.011492278764156013	0.002963408030971476	0.06488053760159038	9.61151660585809	-0.10744059446098103
2.773729	1787824725963108352	0.0010966314200159854	-0.0011292425100630132	-1.6464415866882015e-05	0.041037859576589425	9.662464503580003	0.16573930386093066
2.774229	1787824725963108352	0.013470642476425097	-0.00742247152678447	-0.0009173103965226541	0.09203174309912648	9.655149498064606	0.29279238139612807
2.777737	1787824725966108416	0.008733197865711537	-0.0005938253982124277	0.006778881496695752	0.030669078151559517	9.492968837080882	0.043782520298072995
2.778341	1787824725966108416	-0.015379593816714922	0.010062047673120508	-0.00961482609127156	0.013815730208051852	9.674601491544195	0.05452952950536744
2.794558	1787824725984108288	-0.006804587836547886	-0.0028806488595146894	-0.0014770939558088052	0.16279518789298014	9.860956237659906	-0.17469399130412147
2.795058	1787824725984108288	0.0008483876185288035	-0.0026395948545922753	-0.012210078122082513	0.2397035251129433	9.72341967422176	0.3198432803390956
2.801483	1787824725990108160	0.009937154126234362	-0.003880659983216786	-0.0024664126227128703	0.258086401238557	9.56932586190039	0.10537606428918234
2.808375	1787824725996108288	0.006336344235507161	0.009081705904923526	0.0061412518214916155	0.13310124280978364	9.6805514861269	-0.10302935303306943
2.808875	1787824725996108288	0.001982726894270633	0.006079564350314514	-0.002815608239797664	0.18065462187689285	9.8492165920381	-0.12977727693802696
2.809375	1787824725996108288	0.0011493190034243506	0.006213247613948228	0.004638195791750466	0.008451090564488437	9.51647732703691	-0.32907128213448944
2.822769	1787824726011108096	0.009461325178073101	0.003329730468509844	0.007453039396051171	0.005993191808203555	9.834790705304684	0.1683906534799442
2.835689	1787824726023108352	0.009042518446958874	0.007998246188622018	-0.006031900401883952	-0.24883446773654377	9.816677300859459	-0.06730423073104061
2.840109	1787824726029108224	0.009681246779190343	-0.005909852615103694	-0.007809610668779825	0.2088108130537364	9.952186247518888	-0.1173354421200055
2.843878	1787824726032108288	0.008343101637726532	-0.010080832506374383	-0.008150854221208648	0.10552480143273213	9.821869307516083	-0.1542583577251295
2.844378	1787824726032108288	0.002553931166496174	-0.00112072358432797	-0.011021476365738796	-0.00034253580359518143	9.728202826286223	0.430795892678732
2.867856	1787824726056108288	0.005975346893319208	-0.0017265886702735747	-0.0030985141033354163	0.03245999635139047	9.45080926815259	-0.15876341518469225
2.868356	1787824726056108288	0.003921549357467669	0.0025669877213097304	0.014613422645823687	0.08530125127046069	9.684085496504832	0.36030171497701113
2.868856	1787824726056108288	-0.004349004622819617	-0.00804480452452223	-0.011281495754506758	0.1702658892699228	9.608985968327206	0.27223319943864727
2.869356	1787824726056108288	-0.002874961493989017	0.0008210763941510154	-0.004615674892852343	0.006221813659900932	9.441777996468035	-0.0699511031555882
2.870461	1787824726059108352	-0.008143751398945805	0.01241205311632525	-0.011130310858463052	0.10722529234231934	9.730413393291231	0.19745927300762342
2.882736	1787824726071108096	-0.014264233124576578	-0.0023870811021894905	0.00782450271271837	-0.20639856304818005	9.857523301448337	-0.2177826946610132
2.886684	1787824726074108160	-0.016898074422535516	-0.0037030882046365852	-0.015269415477492006	-0.04142638042252564	9.926242541408184	-0.02004729433296329
2.887184	1787824726074108160	0.01152732020483411	-0.006005829671971877	-0.013362258798092668	0.015337117728119978	9.998588488747599	0.02225096583110717
2.903595	1787824726092108288	-0.0031919433806393226	-0.0051220034725462755	-0.014381965485739173	0.19789547890361953	9.824793982916512	0.21094869589063675
2.904095	1787824726092108288	0.00754950238651234	-0.0024616985117491955	0.0009449978994084263	0.12146246363409036	9.83543947937078	0.07797029058383866
2.904595	1787824726092108288	-0.00984758257230247	0.005819000410507118	0.0037989912075974634	-0.06985759616100183	9.64570515954657	0.05640787601281997
2.905095	1787824726092108288	0.006308931748239951	0.003769107680145561	-0.019552353313502982	-0.20614896148332362	9.63152800868619	0.057037720998191016
2.908797	1787824726098108416	0.02063011379813063	0.0003046348822303385	0.006496797044610589	0.03834120117771408	9.637423128976971	-0.1070893394944579
2.918626	1787824726107108096	-0.016239448774795738	-0.010185916579967326	0.0017114628407684466	0.11665160069794993	9.61071238123652	-0.088106583628117
2.928431	1787824726116108288	0.009717752249481687	0.0039735817838479955	0.0040488838079293715	0.05531703319040006	9.708044914214163	0.18646172846503303
2.930806	1787824726119108096	0.0013358379247783302	-0.00403698134215365	-0.0020545835966282074	0.11497995480229439	9.52509280181392	0.10244719939752772
2.938843	1787824726128108288	-0.0019139422109693814	-0.01653024848161565	-0.003082112409333233	-0.07535214170517048	9.84756122808235	0.024130678288910176
2.939343	1787824726128108288	0.007510453079753515	-0.01579514428549325	0.0044619749620964716	0.05186850832035893	9.819690551988955	0.04275895952746944
2.950293	1787824726137107968	0.013241840300499567	0.006943018145971855	-0.008604395204981536	0.04054039125353832	9.548418454441464	0.07240472876278851
2.950793	1787824726140108032	-0.011102993223565972	0.005217967460268627	0.004107696192543541	0.014524196611363338	9.906780335591362	-0.012227260018368907
2.951293	1787824726140108032	0.001618928922264452	-0.006490973994204871	0.004645358305441148	0.17263712797905728	9.523669202379832	0.049198192645797036
2.952834	1787824726140108032	-0.0032907496043363123	-0.0031805558408046306	0.00018613083364065201	0.1716870864053352	9.862323238630198	0.19526525852353682
2.963458	1787824726152108288	-0.0049962270649986885	0.0052441609375841235	0.0018114147331700166	0.2090708630348721	9.717779073086072	0.01260621506478618
2.971371	1787824726158108160	0.009038455923886074	0.012090445969475493	-0.009518156188988726	0.07100636387774985	9.85581328099053	-0.06804286363102048
2.980038	1787824726167108352	0.0023111938995235377	0.012781389724799426	0.01285760183734116	-0.07571094843237379	9.782855343972157	0.05586590735043106
2.980538	1787824726170108416	0.00821713181475629	-0.0031399466917129636	0.010744643785026048	-0.21662942407082758	9.986399160407881	0.13893529756377895
2.982664	1787824726170108416	-0.010631474267737988	0.005765630326920152	0.018525081984603516	0.262343196334493	9.975670801606505	0.032846018920933424
2.983164	1787824726170108416	0.004936828037597155	-0.0016760792270316682	0.0012440381732821435	-0.03452644062962598	9.597252866880964	-0.28942369476554614
2.989234	1787824726176108032	-0.0047990643678430065	-0.007192606110339358	-0.01951047663509592	0.023851461314107147	9.529885454043935	-0.1754838346036011
3.007947	1787824726197108224	-0.0003016314692646126	-0.005520555367162456	0.0020884210452742228	0.1389263705681887	9.56488120590353	-0.03562183656908337
3.008447	1787824726197108224	0.023780868919246984	-0.004313610751450202	0.014877181346159412	-0.009565649965244158	9.81582759836555	0.14691234454514684
3.013256	1787824726200108288	0.0068816897050600866	-0.011295705787579607	0.01522263371401379	0.15299244487381633	9.651375262639808	0.13091778701130846
3.020276	1787824726209108224	0.005384204378140845	-0.007721989507053263	-0.0018355954960336302	0.12435126468791888	9.468658538375	0.27078491758395806
3.020776	1787824726209108224	0.006319603345690913	0.006427542567395434	-0.004249812917573038	0.21065045614048408	9.831001355750642	-0.03213726689318906
3.029034	1787824726218108160	-0.004226247637730926	-0.0060908034891300825	0.016775080426187902	-0.1554035682171831	9.800601199044804	0.2106700901141308
3.029534	1787824726218108160	0.00031870986511455814	-0.006303198377856434	0.0009224009076852064	0.0219721296714505	9.74238553433809	-0.06912645285355576
3.030156	1787824726218108160	-0.0014153481868256278	0.023544148115540977	-0.0021547480324504444	0.10174734130571206	9.805424197375244	-0.012795020101867477
3.041922	1787824726230108160	0.009196407499891163	0.0058925243962548845	-0.003978660447231136	-0.21288966016611513	9.922692715061892	0.0998903262808569
3.052725	1787824726242108160	0.0008557162148664126	0.0044937576176154615	-0.005195153895283201	0.006633168979367596	9.750834211762735	0.16176722992248352
3.053225	1787824726242108160	-0.0026765632142783627	0.004402659201432918	0.008058071999785324	0.008822835776607377	9.74897183225761	0.43839509492883194
3.053725	1787824726242108160	-0.013143871312499668	0.0011047575083086173	0.00033355665966849614	7.1996084427955465e-06	9.907657967409603	-0.012367667615643667
3.057882	1787824726245108224	-0.00255733291012044	0.005045029055133641	-0.013654758113359212	0.053122757113790484	9.8261037162038	-0.10677013603882232
3.071480	1787824726260108288	0.014728365840854537	0.012015756363282292	0.010256489746240629	0.13567710657588217	9.906565378534228	-0.01569665268784355
3.072512	1787824726260108288	-3.6282678648965735e-05	0.0006798312314648515	0.003911916795880921	0.3473401282909022	9.690300545497514	0.2994031247353536
3.073012	1787824726260108288	-0.006036515480061621	0.0009515734157176438	-0.010070253733903429	0.2628380698128236	9.621544554598206	-0.046030638399471135
3.087103	1787824726275108096	-0.004963382409724045	0.00389822488308073	-0.009073910589345629	0.25643570506806435	9.756360558596526	0.08052262237225113
3.087603	1787824726275108096	0.007190165278737346	-0.016772701685073894	-0.001786900092051354	-0.3420678628072118	9.815780592811294	0.04595017961222042
3.090384	1787824726278108160	-0.002452937269986087	0.005074961040460213	-0.0032868115452378568	0.011466850500195302	9.61862797063612	0.13401813925182762
3.090884	1787824726278108160	0.003207070860848329	-0.012861316720414174	0.0029217677246924163	0.11855857626066017	9.945020081060013	0.463798079976822
3.095175	1787824726284108288	0.010599483726071873	0.002047856324113197	-0.008113070679962742	0.26459788961720165	9.737889257774725	-0.08774642251411865
3.100769	1787824726290108160	-0.005140241416471529	0.0018897440628440068	-0.006641682956182313	-0.17510971137152131	9.856936137107736	-0.15434602705135905
3.102734	1787824726290108160	-0.004129034632138824	-0.015598815075933765	-0.005652917301156298	0.15540163314578342	9.807314749053448	-0.026164361244436524
3.117980	1787824726305108224	0.007657217571001232	0.0022332561911613245	-0.0016317393249795688	0.22648590891610448	9.868315140743572	-0.08433167033947753
3.119126	1787824726308108032	6.351009974178794e-05	0.0028574944778759254	0.011965876374341745	0.17225033114048638	9.61205974406024	-0.16309712812115063
3.119626	1787824726308108032	0.007509721704558554	0.010873685287375484	-0.004945921762007768	0.07373584917291871	9.849290442323491	-0.14828055716778143
3.128635	1787824726317108224	0.0020858537386534803	0.001196125095196307	0.0024493260136036078	0.009706235353949155	9.784335189068129	0.0557579553415275
3.129804	1787824726317108224	-0.016899120464789426	0.003534755528353917	-0.002225544959440996	-0.15549084223044818	9.594440616091507	-0.11792313891825096
3.142574	1787824726332108288	-0.008809392444766402	-0.012895075476237503	0.0022907920022309787	0.08853086161072328	9.699706599457059	-0.014396319902787107
3.143074	1787824726332108288	0.018669890079109686	0.011273903371869185	0.02122663502244396	-0.14948038520831292	9.750342280794161	0.02554628867775177
3.147967	1787824726335108352	-0.012885043099695216	0.0070703614572254	-0.0003926424523285314	0.23856258353126353	9.763712878156891	-0.1992075985829589
3.150562	1787824726338108416	0.01781657619082396	0.00985254833157297	0.005310192033893981	-0.1896454819425853	9.787804487187875	-0.043146662837408534
3.152383	1787824726341108224	0.016003074156412406	-0.011976303424622737	-0.0030924124318884275	0.3376297331081731	9.739686353829113	-0.037213742903363004
3.169933	1787824726359108096	-0.001168627002815342	-0.004961866139775215	-0.00601677151964889	0.44261300014899074	9.487657361543583	0.31977146555614083
3.170433	1787824726359108096	-0.006420595529567729	-0.0060362924510180185	0.0024537800684259438	-0.01744880050273813	9.626340430454126	0.3333199330612207
3.170933	1787824726359108096	0.006910874551293148	0.007307300169808161	0.013714935171434097	0.2870697399084201	9.884246273764772	-0.04700104014581969
3.175264	1787824726362108160	-0.00045348935110869573	0.0030877057949773067	0.011559963504857456	0.11369586865576863	9.76489700894623	-0.19208147589376076
3.188867	1787824726377108224	-0.014076896798549496	-0.0021096171211051574	0.013440654437474442	0.18233085342280153	9.740862262271023	-0.048243775444791304
3.194411	1787824726383108096	-0.0072048560890101785	-0.010611598102637567	0.004556981849199292	0.08765713955103464	9.714453228995296	-0.03581064054666608
3.194911	1787824726383108096	-0.01092972537448063	0.00022180825393848337	0.0015513698727066501	0.14058181316861312	9.619798838461652	-0.015333629143372225
3.198601	1787824726386108160	0.004873881430074724	-0.0008073151835406819	-9.086659773792801e-05	0.2000817437195813	9.919335500361745	-0.01667369393978712
3.201818	1787824726389108224	0.0043397149032054555	-0.0020804709365206246	0.00015299801712607473	0.163880700479893	9.828845063062607	0.07181964914171639
3.202318	1787824726389108224	0.006240646936386367	-0.008194239003377065	-0.007561500628271705	-0.1966680501824016	9.828131285241527	-0.022902219165073096
3.211387	1787824726398108160	-0.014040081557801098	-0.00894872695075555	-0.007698787114888211	0.22130723071391473	9.783033018039909	0.10357700739942768
3.211887	1787824726401108224	0.011925220082277777	-0.00074219637075389	0.004415148470355767	0.06362719032868577	9.915955965004278	-0.20485101839442946
3.221062	1787824726410108160	-0.00887148244779539	0.01070889125822589	-0.003887910237415214	-0.031191516557152507	9.763941560592285	-0.006906112799095518
3.232779	1787824726422108160	-0.0029048163506252265	0.0020874149188665763	-0.0006610402796222661	0.05877330020326077	9.911108987479116	-0.040014938973943634
3.233279	1787824726422108160	-0.0065606935135235885	0.0016866094267716572	0.006899924722431223	0.11282567243234562	10.027729593252756	0.03039973862290384
3.238656	1787824726428108288	-0.0007653363067621124	-0.013488189150644647	0.0023886798706000203	0.38088817073495984	9.865910295429487	-0.03129819728258386
3.240681	1787824726428108288	-0.0016409267700293086	0.010610960742703148	0.012825313107077373	0.03933208104871451	9.73430006835629	0.09959208708722593
3.247502	1787824726437108224	-0.003722569028603884	0.0015850350870457379	-0.004627120985281569	0.18544385955615206	9.812545681360927	-0.0589898071781247
3.248206	1787824726437108224	0.007736190911424673	0.0007983041880753723	0.0021330875497568	-0.09688596564976677	9.739689796118927	-0.006815544819179002
3.256776	1787824726446108160	-0.00347716915599464	-0.005690082691186261	0.00918861928779725	-0.14893807430916428	9.403364981056999	0.15012845282934983
3.266132	1787824726455108096	0.01033686456095707	-0.006405218740687485	-0.006685699984175415	0.1382679381036332	9.717493090869686	0.12524250419585992
3.266632	1787824726455108096	-0.006682849286712761	-0.0003324577195898845	0.0037941630235470303	-0.008491512796307277	9.93593126141141	-0.1260064051927227
3.269607	1787824726458108160	-0.01653466917539224	-0.0029050744166946294	-0.015442178390795142	0.3638426074558948	9.876614683094683	-0.19822553709628693
3.278459	1787824726467108352	-0.005039158589134639	0.01427770155216644	-0.007961430970999824	-0.10179933065840087	9.722789228429255	0.1646932702953064
3.278959	1787824726467108352	0.0029756195193040287	-0.004228383703897592	0.004107747535256425	-0.040553198676460636	9.713235520377474	0.18607404030723237
3.288261	1787824726476108288	0.012498475752761092	-0.005480903412484556	0.010401890163557184	-0.10181379361453025	9.629261821683324	-0.027673131642210795
3.294068	1787824726482108160	0.0005684510508280204	-0.0033334590108485642	0.00443683273803906	0.3148934405325383	9.69718262395255	0.04738281361959061
3.297858	1787824726485108224	0.0024319701224329144	0.0061063020050005825	0.007606341705227404	0.045721194581938567	9.61065904158429	0.16731272703266076
3.301413	1787824726488108032	-0.0038751089534659797	-0.023954037824758894	-0.01250022208869694	-0.05695063159746315	9.585589980293273	0.2066308507002083
3.307411	1787824726494108160	-0.0032386788735558033	-0.006680738945985734	9.63223305751975e-05	0.02977408109173641	10.056240673561112	-0.22387918618453195
3.309534	1787824726497108224	-0.002164625161473375	0.010395712618504388	-0.0005779711731387105	0.16468282061089493	9.773306006838988	-0.1225985830401104
3.317805	1787824726506108160	-0.005566301243676913	0.0023149218643595897	0.002028213315199127	0.006749661573846169	9.886800541309974	-0.2756709259448694
3.322648	1787824726512108032	-0.005213337096011566	-0.0006978108522068367	-0.002004416543339871	-0.0024864660584463516	9.563409520046672	-0.021335528457449786
3.328205	1787824726515108096	-0.0035719186461360374	-0.003958147639718909	-0.0007926785504225314	0.20882396975138212	9.429919370128433	-0.04899493833002557
3.333254	1787824726521108224	-0.006153508090529498	-0.010146553964763449	-0.008507170348595414	0.012123401052569427	9.774455741115686	0.14224903631424804
3.333754	1787824726521108224	-0.01867770119546177	-0.0009097170314143704	0.012803623689635866	0.04128528029622905	9.415247826683622	0.04910217717922918
3.336488	1787824726524108288	0.001174872502109859	-0.0011249888129917461	-0.005504407528860495	-0.08771248181163369	9.595860068287777	0.01084909031976189
3.347847	1787824726536108288	-0.0013786500270532359	0.010895505436020194	-0.011747612610384883	0.21243778903097382	9.692207207480465	0.05563018898485259
3.349396	1787824726536108288	-0.005127717325475632	0.010142406195743142	-0.0064525057761029665	-0.08297283091530698	9.826234616235007	-0.01838276410120726
3.355445	1787824726542108416	0.0015265511271009523	0.0025532300992116073	0.00832119319133913	0.03939247846117657	9.711508482077555	-0.30504665480203946
3.363556	1787824726551108096	0.01222154549349963	0.008055781219116803	-0.004791897188196638	0.016815865595540026	9.809978732419271	0.0005976535870379218
3.366440	1787824726554108160	0.013924743435305555	0.0009681871186506852	-0.002407726539245331	0.194587414075357	9.955423373392245	0.1714270387489001
3.366940	1787824726554108160	-0.009019641475614473	-0.007695900192821345	-0.0035199047112893073	-0.1570959336671603	10.083879397650485	-0.03417051890925807
3.383453	1787824726572108288	-0.004392397078562454	-0.002052605913910244	-0.0022341415882666874	0.08326327154329438	9.475486324655463	0.31727659478270565
3.383953	1787824726572108288	0.0006058266408453003	0.010129917949944839	3.1641426717156284e-05	0.0640228818462726	9.943639641533485	-0.010917458551637088
3.389131	1787824726578108416	-0.003730505605091577	0.015826827751840515	-0.004010288545362573	0.24735204301220415	9.66245835896641	0.08330410291491042
3.389631	1787824726578108416	-0.00865644518038076	0.005697338758897033	0.0017773168861510461	0.18835601353512943	9.802022947429979	-0.08668368934911545
3.398114	1787824726587108096	0.0030569578440754162	-0.010410886199355887	0.005708579496889862	-0.04125111610731566	9.856600376590766	0.12975713164136898
3.398614	1787824726587108096	0.006234438951805095	0.0009555679290270435	-0.008218881343769116	0.18318188034855465	9.798341342943802	0.059486038503368706
3.407345	1787824726596108288	0.008001363252562696	-0.004722070383253727	-0.004777667378700442	0.28938562950578767	9.676667181518223	-0.07900219787045656
3.411491	1787824726599108096	0.006772013845895699	0.0057555634517773915	0.007216754607274241	1.984859307974096e-05	9.455926015764545	0.10368023504636742
3.419122	1787824726608108288	0.0002464787157957188	-0.005175072565182556	-0.010402261793396095	0.09198490174303123	9.713853272270972	0.28753412376109944
3.420067	1787824726608108288	0.0017016065524049682	0.001367395423729079	0.007002583307280112	0.09882724321779437	9.752711865682382	-0.013203519816015995
3.423985	1787824726611108352	-0.006301867207463075	0.0018159053707082482	-0.00013051172226002957	-0.042467096061038406	9.53724997204417	-0.04823966255475956
3.429345	1787824726617108224	-0.0028000252697198795	0.009174965806241452	0.004728036018277712	0.18550210185572838	9.826177652790953	0.20227569375518845
3.429845	1787824726617108224	0.0031636884828824246	-0.008569197568334977	0.0050320044926435	0.10645712171180818	10.068961005226823	0.04694045432992198
3.441746	1787824726629108224	-0.009098665701737386	0.007296928626870459	0.0034199574938945138	-0.1609597905179307	9.727622472503283	0.06003841232459149
3.444805	1787824726632108288	0.006625957437079622	-0.004038741348928454	0.0002487720456286659	0.12262651126866242	9.677643307390952	0.08558479132565056
3.455488	1787824726644108288	-0.0018534068885454331	-0.0011625541846795237	0.0007923152177337546	0.19078128964230434	9.535241985450789	-0.07427521515055578
3.460305	1787824726647108352	0.00952795812024988	0.0015730665834282698	-0.004178857477934597	-0.010288844678021505	9.453282836459609	0.08756192962172765
3.460805	1787824726650108160	0.0006416677734493812	-0.007740874547443352	-0.0019707667921123433	-0.01876708886886462	9.590023110738063	0.05032870774026033
3.475116	1787824726662108160	0.0001837147126499922	-0.009296521094886764	-0.01588291582980417	0.11028602743675113	9.734050602940052	-0.078759085504789
3.476868	1787824726665108224	0.014484834582836177	0.0055386887149295365	-0.0004994810514755094	-0.2645309872861707	9.886185780204924	0.13608412026682487
3.485987	1787824726674108160	0.010394770430422902	0.001965066997018563	-0.02189491634093238	-0.17660805296142543	9.963881879407303	-0.11352064930037367
3.486487	1787824726674108160	0.00011555983708795143	0.0077210853639989125	0.005853532586297736	0.06321303118333897	9.901715192830808	-0.22907093676975276
3.486987	1787824726674108160	0.0010891618338908144	0.0008305697018089498	-0.00496827521215912	-0.030392248317321097	9.682220667939974	0.03474372512507719
3.502159	1787824726689108224	0.001974148878297898	-0.0025574916504032324	-0.003517581600255861	0.23536333225265563	9.852650126476762	0.19750857326953608
3.502659	1787824726692108032	0.009783432765864401	-0.014233519308672877	-0.0026435158984024986	0.03993949464086424	9.64353304356307	0.1057437926443458
3.503159	1787824726692108032	-0.0033422153767085094	-0.006244594586857708	0.0016302306622187352	0.19649453777614928	9.982784717656424	0.0017200733633095794
3.509919	1787824726698108160	0.0003516815545280262	8.930096841193249e-05	0.006306232327519364	0.17157006294483718	9.904375186542424	0.25938415232218415
3.510419	1787824726698108160	0.0003060744679316938	-0.0027320349083213903	0.004345781176530579	0.025150882823783964	9.932612947925143	-0.00857970474302465
3.515055	1787824726704108288	0.011491530173118837	0.00012570315240367625	0.00026147077616327935	0.07850688375247886	10.001134144322787	0.058536506541086636
3.515555	1787824726704108288	-0.006112129449037475	0.002811596972454924	-0.008293064315452757	0.031005746632280222	9.892380395748923	0.08576556699537069
3.520948	1787824726710108160	-0.006789813239344866	0.004971329756958114	-0.00432238643111965	0.020131201026248685	9.989816805311815	0.09590139091618335
3.533661	1787824726722108160	0.007809435596107296	0.0018339607596190033	-0.007552911771162502	0.163875873171135	9.768812322193854	0.19450489085034028
3.541795	1787824726731108096	0.0034691619199991386	0.015381177921024647	-0.00933469312640338	0.027036440941789218	9.927226585541993	0.2089944637032033
3.545555	1787824726734108160	0.011063816136192096	0.0017971728057920107	-0.011497224578662597	0.17204209105322948	9.704100611920701	0.1478874181628888
3.550743	1787824726740108288	0.005620186731216454	-0.0004925889976221484	-0.011915865479686575	-0.06114533869733553	9.82304394485715	0.16044223706538685
3.551243	1787824726740108288	-0.0015904924099118822	-0.014623526682185285	-0.00014470699578476	0.19409882888311727	9.86950977468093	-0.016552622159078968
3.554440	1787824726743108352	-0.0001864441041334735	-0.007216573427430461	7.333916362549829e-05	0.050208109739396434	9.881704396905523	0.06731430933407205
3.561546	1787824726749108224	0.0018332814427870763	-0.0051734093624968515	-0.0009692594321294661	-0.205542551382216	9.928121826587331	-0.24457093670781316
3.566164	1787824726755108096	0.010488101493149533	-0.01016243277166463	-0.0015245854037609081	0.10597980403821076	9.476768073948993	0.12626234324191682
3.575257	1787824726764108288	0.009850918160409774	-0.0017585927716082625	-0.00034984864379902217	-0.04438330753710419	9.555478230224873	0.1225233268285065
3.581467	1787824726770108160	0.0016883036137599935	0.009558271332468869	-0.006011791299210236	0.005869326315411677	9.773770023691862	0.051762870864302986
3.587502	1787824726776108288	0.00852790225588796	-0.004843424779546787	-0.008044622473861836	0.12770308401608102	9.62728680530811	-0.03999098092583527
3.588399	1787824726776108288	-0.004789642525379805	-0.0037445362767920664	-0.0022040016946819597	0.10954898713691066	9.798422592131999	-0.09066592125844201
3.591024	1787824726779108352	-0.01030308798233407	0.006522365385933849	0.003970487261079194	-0.042862529455702916	9.869619088558531	0.13436718069943748
3.592796	1787824726782108416	0.0036264252206613706	0.0036237513114028407	-0.009218780666137804	0.14799189023289422	9.671604350896393	-0.3679330581390053
3.603831	1787824726791108096	0.012458219384137388	-0.006770590130528142	0.007008816524974622	-0.0029025109029314072	9.507079738746935	-0.25349880009367726
3.606424	1787824726794108160	-0.007828466187670302	-0.005920891144307002	0.005703924931572867	0.2547274288358102	9.828862988484099	0.21170559507730088
3.616089	1787824726803108096	0.008031657572975652	-0.0090423473589245	-0.009117054487555929	0.03159011537440762	9.618362406040372	-0.2593063757405282
3.616589	1787824726806108160	0.0006928678811111343	-0.003140439255788412	-0.009497045346607879	-0.10621060406930866	9.633858774331484	0.012333997023410835
3.618363	1787824726806108160	0.0019070417814739046	0.0011213411065240193	-0.005910064706423917	-0.03634640736859979	9.805483529894923	0.12076045888959457
3.626667	1787824726815108352	0.012849363536062107	-0.009118168573634065	0.001689694988254487	0.1290351897346761	9.582144623500781	-0.0985481803026277
3.633399	1787824726821108224	-0.00690778421470422	-0.013490963384294296	0.0013419555370384226	0.05490982147008898	9.554071550229436	0.06649423200733667
3.644854	1787824726833108224	-0.00414290156953495	0.009437966793172896	0.0048758669466922285	0.12076877216868523	9.632269744652538	0.1036784950094323
3.649630	1787824726839108352	0.0019589704156559814	-0.007496345701279016	-0.003417662738475046	0.2494903502628107	9.750834886239135	-0.06762916150992387
3.650130	1787824726839108352	-0.0015455594239348399	0.003765990666761185	0.005004386765358657	-0.12013866280690447	9.746971696040221	-0.058812420623883595
3.651889	1787824726839108352	-0.0071072995343163855	-0.00846779724679753	0.012177398847598246	-0.058156227739875846	9.840811846330244	-0.12072593806091757
3.659688	1787824726848108288	-0.003183577914944567	-0.009364130355061957	-0.0029177289321012903	0.2555541245268053	9.971105264982725	0.17876352711481477
3.665009	1787824726854108160	-0.004863477402299424	0.008625109863447533	0.007170634207753942	-0.02094025494369453	9.659792876978678	0.19911559510191265
3.686005	1787824726875108352	-0.013135711199925725	-0.014077547603228834	0.00911629820187259	0.14657922131302376	9.695893684454623	0.23414158069658675
3.686505	1787824726875108352	-0.012914858649569129	-0.000691734841481459	-0.003711403373040528	0.1622070697851296	9.535274479782027	0.2888735113397311
3.687005	1787824726875108352	-0.006341464183052341	-0.0004988774876753874	0.009901896707104315	0.37542272190553483	9.684200566235758	0.16424226442008696
3.687505	1787824726875108352	0.004487230943630402	-0.006616249334317287	-0.00209579029451887	0.041476206869124475	9.636268955240359	-0.016024162645535897
3.691780	1787824726881108224	-0.0160624477585447	-0.0043153706204208725	-0.004933682400394275	0.07892864715513923	9.609449140856087	0.11571916421648251
3.703045	1787824726890108160	0.0017882171193958469	-0.01046817204724974	-0.0036891344584998476	0.26705649575107143	9.70207294330854	0.11644070679051072
3.703545	1787824726893108224	-0.01240714630760152	-0.007479797924711756	-0.006587121118553495	-0.07029686000348555	9.937157182292466	-0.1157288086606951
3.704045	1787824726893108224	0.0032355930737097576	0.01298940735422326	0.00257007578736597	0.15014956392216036	9.863502968182011	0.1377940406922294
3.708741	1787824726896108032	-0.004122526012059926	0.003454039435048461	0.006886597352317294	-0.129399911993695	9.689219001316923	-0.010676107906722673
3.709241	1787824726896108032	-0.006279249604672302	-0.0031944228690027106	0.006841857270022514	-0.1579215945451214	9.746680007620768	-0.11606447839473266
3.718271	1787824726905108224	0.010580460104648486	-0.0012035713631923957	-0.0015940508656228794	-0.1337955137388595	9.677269569737872	0.12811182159179685
3.718965	1787824726908108288	-0.0038658287461024224	-0.0012976007632900376	0.0006810944977830395	0.27186670163531845	9.70117494578462	0.060888658413261784
3.723832	1787824726911108352	-0.0007844676748530312	-0.0019013494290134986	0.008042892893060014	-0.0012227999704465115	9.73658162791853	0.15358216128633845
3.734728	1787824726923108096	0.016142699943434546	-0.004169879038620729	0.011830022822924858	0.35913292507057687	9.841807903381069	0.3690460648616779
3.735228	1787824726923108096	-0.002074711311406029	0.008139115589203012	-0.008016811416577084	0.007140907386377585	9.918229921174685	-0.05449376949397278
3.744560	1787824726932108288	-0.011077497118201603	-0.008433252150749124	0.00983430600218546	0.06512036730328022	9.775510891798907	0.12440755063105613
3.745060	1787824726932108288	-0.004983283418519354	0.016264839540295683	0.009845987317164576	0.2489395166536511	9.612558951152195	-0.002224177962098575
3.750147	1787824726938108160	-0.005440945476007422	-0.010622058952900219	0.0017109518244630296	-0.03957787088649481	9.801980835763919	0.09035153320367298
3.759852	1787824726947108352	0.0002586725796894631	0.0014519609591863425	-0.001895793340286108	-0.01944344742089353	9.522335632121912	-0.07925374326250402
3.760352	1787824726947108352	0.010590583633974512	-0.008489233905241946	-0.0016692959847812224	0.5381022941476095	9.81160994281873	0.301571230275399
3.762114	1787824726950108416	-0.0027764182999756777	0.002358349618256724	0.009502594356347548	0.29888932509998806	9.94602623675148	0.16996139288078402
3.774493	1787824726962108160	0.0051127429480496535	0.0013128392424889806	0.009003874031189565	0.06494888946337404	9.812535681742265	-0.13978333102149298
3.774993	1787824726962108160	0.018161358559429804	-0.010828877491683344	0.005914330210546621	-0.14749276234666725	9.759267528967797	0.15761618784336928
3.784381	1787824726971108096	0.01224414506596316	0.01145560729045874	0.01096890356422679	-0.14304929317472598	9.821741250870312	0.015898499096779803
3.784881	1787824726974108160	-0.0012844148412631657	-0.00318305529897446	-0.006541103966776964	0.022999085934356345	9.695867372166564	0.10852110184069769
3.808260	1787824726995108096	-0.005435320533179892	-0.0030785548779065173	0.013416755755462046	-0.04488653591660301	9.778893734771357	0.23300865892697725
3.808760	1787824726998108160	-0.0038888178481419166	0.0009681344410879931	0.010021068438383431	0.3387532019057733	9.817395375102592	0.0968986194425242
3.809331	1787824726998108160	-0.0020309754121331934	-0.001993112068989112	0.009238926086587993	0.26595939681484015	9.747867592159782	-0.08443896318919195
3.810948	1787824726998108160	-0.014180655952169278	-0.014156902566299862	0.006447949570207154	0.16298979383583945	9.73095238612351	0.14838777956204613
3.817451	1787824727004108288	0.006617674061232131	0.004754585695717655	-0.007126038584488491	0.12177491732689488	9.811518202563835	0.027641638345533397
3.825050	1787824727013108224	0.0029602994736265572	-0.0038971589873912477	-0.001960382638957391	0.04420839627090481	9.595929733851735	0.10469841505038112
3.833761	1787824727022108416	-0.0008690316636208808	0.008596989197084268	0.006731421181107842	0.4053296863285438	9.922194038118691	-0.09450694056149192
3.836821	1787824727025108224	-0.004046656925507573	0.014964193117461905	-0.007390649161018217	0.09007017753005696	9.709044521361415	0.01583627270988154
3.844735	1787824727034108160	0.016306821863091615	0.01694085867499142	0.0046349878595392125	-0.04166697699089085	9.951298339677463	-0.18269390039708963
3.847178	1787824727034108160	0.005221201891581595	0.001106868632200141	0.003679035448638531	0.24440492006810313	9.730700608263895	-0.06424781066481025
3.856120	1787824727043108352	-0.01144112929070762	-0.00107502985542538	0.010032032097288023	0.23781674061402897	9.631999179886384	0.07654500444362962
3.868501	1787824727058108160	-0.0023457899018010974	0.0036188269435686467	-0.008613543873187588	-0.09169707431398494	9.405750778445565	0.20295588949018895
3.869001	1787824727058108160	-0.008138678010505112	0.001290662088781028	0.0019203270322146748	0.20174702642819184	9.825704275894001	0.16431851391269045
3.869501	1787824727058108160	0.005996678531687739	0.01267588980564163	0.003044091077584483	-0.043527990800231564	9.656220478583604	0.11960455808442158
3.872298	1787824727061108224	-0.01258198247280783	-0.009366597642527173	-0.005921969784846435	0.3788117149589458	9.878774127688972	-0.02874896403878561
3.878413	1787824727067108096	0.008148903810170196	-0.005429361962252265	0.0024988543528738547	0.019638637862126752	9.585866757187889	-0.33654728495887487
3.878913	1787824727067108096	-0.0008756679634747583	0.0019606511495309157	-0.003169313233946869	0.03005584092809925	9.906307335373521	0.010435146610214649
3.881037	1787824727070108160	0.0002825915388298599	0.01566121527580078	-0.011125034859546126	0.2973994378020532	9.792536256060362	-0.12708926680388644
3.881537	1787824727070108160	0.0037536385109796498	-0.013179589003446162	0.0002971612371286504	0.14696964458051615	9.928532908136576	0.04489057793776399
3.894227	1787824727082108160	0.018034702323298703	0.003852742155905336	-0.009886188533532564	-0.10349587851663056	9.851037756196941	-0.09215388832530536
3.902172	1787824727091108352	-0.005020472134165208	-0.01159409406936834	0.0061112892167096205	0.022750327118127384	9.689311636980241	0.190841236132104
3.912371	1787824727100108032	0.003232683568456019	0.001000850000032764	-0.0014359674458210127	-0.14185378740012008	9.930993041487651	0.03124140505361645
3.921130	1787824727109108224	0.015215656521136425	0.02275552114991581	-0.007610113308121525	0.09332135857312582	9.758964002314626	0.07006545156544663
3.921630	1787824727109108224	0.008935070602028	-0.00028695655854202046	0.0034963272676815137	-0.10699023849178753	9.66837737435994	0.03584115829705805
3.922130	1787824727109108224	-0.01070319833185941	-0.0017044053449347613	-0.0053240736949408	0.29665484929111285	9.499464149167787	-0.0952302652619826
3.922630	1787824727112108288	-0.0147520369779023	0.00259226220022371	0.0037020482678503286	0.04150233186824064	9.853520960333073	0.10409196184966993
3.928577	1787824727118108160	0.004687564855020168	0.008871156735105912	0.008790801832075165	0.016175897296914217	9.769881221703752	0.20882630151158116
3.940883	1787824727130108160	0.006726280419452941	0.007928709249221531	0.0024289413158360106	0.0835211621880869	10.025416404822266	-0.07513135013997786
3.942076	1787824727130108160	-0.0034688517128713303	0.006495452006848864	0.007354769070319406	0.04318863878414853	9.779862129292878	0.21739364797535576
3.955319	1787824727142108160	0.0039697623395871726	-0.002968409561314457	-0.004417026468345825	0.03362800176704836	10.012392855616541	-0.09038056660894843
3.966675	1787824727154108160	0.003749524324765261	0.0018035904772292254	-0.0037035429819842094	0.44851829311702807	9.434674793814636	0.3072044619782299
3.977339	1787824727166108160	-0.010924445230397836	-0.009426095628774634	0.001965380376553184	-0.10392472456810864	9.870324531388171	-0.016601304619676883
3.984681	1787824727172108288	0.008483209845131163	-0.01109744580313618	0.0031638398635294024	0.3601978111628704	9.737777486335386	0.011267696079479063
3.985181	1787824727172108288	0.002389641531682017	-0.002463721839365571	-0.008300823615497199	0.07709833321609594	9.722521224063382	-0.045961555621520836
3.992737	1787824727181108224	-0.002842896203730485	0.003964865792844462	0.011235619101929576	0.2724522269703206	9.752541244509192	0.1575209622825537
3.993237	1787824727181108224	-0.007264798059470166	-0.011126209170984613	0.0027243051957971487	0.05913179599827008	9.663211512409523	0.10168795662278321
3.996529	1787824727184108288	-0.0003965971403914608	-0.007245145800598401	-0.010788640634274269	0.31038096066281723	9.833143044801576	0.2677646348422832
4.000820	1787824727190108416	0.004162937365423746	0.0024709960903139777	-0.00945873593502465	0.38807738524618374	9.74902313634205	0.08693978432594193
4.013159	1787824727202108160	0.000980831997325331	-0.006176023016815667	0.012871786037649222	0.057481968755119184	9.886621092211485	0.10601860926451101
4.013659	1787824727202108160	0.006311532908136503	0.010493493715402239	-0.0006505898451612445	-0.21062260100985786	9.5730781419877	0.08287596045059811
4.022985	1787824727211108096	0.014944592271887071	0.0002207635687220781	0.01837763432361217	-0.1799041804619633	9.801921307652375	-0.05006196463053393
4.028201	1787824727217108224	0.02104368483180702	0.004072242931573422	-0.001377015497268007	0.14474846183567353	9.734905134047025	0.04336808596963749
4.034119	1787824727223108352	0.00143886296347375	0.0009670516418826446	0.0008735676967927673	0.1822188472477007	9.748325774721208	0.25423011752844105
4.034665	1787824727223108352	-0.003997184512412733	0.0049466929623585894	0.004020825520910263	0.28723709876066833	9.881738991976485	-0.17021943452201604
4.043137	1787824727232108032	0.006059340540132466	0.0015292831446560061	-0.0017747739569452616	0.1626022439412575	9.729066115245136	0.006876558475532993
4.051919	1787824727241108224	-0.004027320528870978	-0.007257568832920953	-0.001137581876378929	0.08442081714319712	9.883238024479141	-0.1543021820811735
4.052419	1787824727241108224	-0.00319596252598925	-0.004454046818495092	0.012522670286797898	0.05623678202823362	10.142177324666445	0.06132838977507388
4.061210	1787824727250108160	0.0044580983353971065	0.0032770445047073603	0.00244759813858414	-0.0004374643300006087	9.697217231646174	0.2042126743677718
4.061710	1787824727250108160	-0.018798670245366262	0.012245037550591167	0.007513805060076338	0.13543039626554676	9.58761371998849	-0.018712030389021514
4.068143	1787824727256108288	0.011338499347150643	0.015602065979079536	-0.006188637590626984	-0.04584329668471275	9.688338718661546	0.3170647720730665
4.072596	1787824727262108160	0.0014077729878252442	0.004496185781068034	0.0007401699458696624	-0.14713226146931335	9.653441660588362	0.17916163331191304
4.076120	1787824727265108224	0.003728043650348886	0.008148152557976173	0.009962551287745456	0.035220292512053906	9.640546882501365	0.21131124709790045
4.082900	1787824727271108096	-0.010807821209435324	0.009827603216793504	0.000602728464501825	0.2836622179315852	9.80310086694643	0.09950265640133094
4.083831	1787824727271108096	0.0023077044905634083	-0.009798152733796353	-0.0008820304253076894	0.3467628478595207	9.852598207383899	0.16912573063702585
4.084373	1787824727271108096	-0.007144378174858981	0.005548713001630714	-0.008237549044180595	-0.006671837092232777	9.537908646595607	-0.24429596491191663
4.097656	1787824727286108160	0.008443431112877108	-0.0031224310662478234	0.00022073176071157974	-0.000494710593575462	10.094613528435696	0.17057033636258256
4.104273	1787824727292108288	-0.0030104133228166887	-0.0027640985637892176	-0.011737759621568873	0.0646699931838591	9.671901118120026	-0.1278871911000261
4.104773	1787824727292108288	-0.0048854119595128954	0.0046752514054402075	0.007664556246652337	-0.08930943963610993	9.590537883679628	-0.15198637175647567
4.117731	1787824727307108096	-0.0060186749619660996	-0.015456317788251076	0.011094301007504035	-0.01862359243337125	9.60756266018046	0.20401527102724373
4.118231	1787824727307108096	0.010653015952356543	-0.005382515668415965	-0.0014785222362143635	0.08279486401568648	9.72170844293557	0.07320887998613387
4.120659	1787824727310108160	0.018856546315229872	-0.005844542487027144	0.003626336123933228	0.16663174995723695	9.48346549165437	0.052499603231252606
4.131516	1787824727319108352	-0.0013491034092833283	0.007410264798029882	0.004347684597452465	0.0926529222701116	9.814586052985161	0.2048113221241139
