# time_s	timestamp_ns	wx	wy	wz	ax	ay	az
0.003823	1787824723191108352	-0.0006115761396833974	0.003345107191436727	0.0015562636723972575	-0.02842912606753567	9.730269149002272	0.016508686766120752
0.011156	1787824723200108288	0.0005423967535501585	-0.0023589264556759613	-0.0008486089842449106	0.04519603494671787	9.752826104139663	-0.027251589235807554
0.011961	1787824723200108288	-0.0013920419968073095	-0.00038020619702255844	0.0032631132364119805	0.004268267318431485	9.700084378303373	0.015575383111175666
0.016608	1787824723206108160	-0.0007965038236985865	0.00028490660620449396	-0.0017951525544915678	0.013797364686840185	9.837484170302117	-0.034274647573798604
0.022133	1787824723209108224	0.0007390550586997313	0.0005088235351800318	0.00033794582357328496	0.057224663841431635	9.773785889521845	0.043460007816735785
0.026531	1787824723215108096	-8.547565078979365e-05	0.0005801087618965107	-0.00023276310819263856	0.08801474623995362	9.778473680116	-0.017846016164267134
0.032726	1787824723221108224	-0.00026504375552623783	0.0021642269641334957	-0.00017603857239075092	0.00109404098716585	9.771781120519783	-0.0040175834425665545
0.038106	1787824723227108352	-0.002355537024331241	0.002276047384166049	0.0009897916888114832	0.0850940642796721	9.789200848580661	-0.031988262152977016
0.041189	1787824723230108160	0.0009253522596504742	-0.0018993969183772376	0.0012657091888033042	0.041317355215064855	9.852961609393644	-0.10037770441477888
0.047736	1787824723236108288	-0.0006989088685253858	0.00015572177331482027	0.0003778609389389983	-0.033198033820592714	9.77973588593512	0.06546185114801675
0.052912	1787824723242108160	-0.0008078695941678408	-0.0016337180242399882	-0.002063135875688456	0.020306640651067194	9.771618398139458	-0.04310230128468459
0.059036	1787824723248108032	0.0011612436168033811	0.0005306521706659455	0.0016593672450378803	0.022140091426770786	9.823396125456577	0.005413277666778984
0.063508	1787824723251108096	-4.727833625620192e-05	0.0003496897790012317	5.0350540490499244e-05	0.03556770055844524	9.747161023232485	0.029740922086811894
0.065472	1787824723254108160	0.0017148898861982609	-0.0014221504214703474	0.0017020308655386136	0.029498724880517514	9.73579920557897	-0.034792101281092884
0.071345	1787824723260108288	-0.003117415953383072	-0.003094536277277169	0.0026393148021767576	0.040612345195815455	9.858892019220619	0.04151039946363692
0.078400	1787824723266108160	-0.0010182703023521413	-0.000927790334356823	0.000589062504435518	0.04292645654099827	9.739659713587507	0.02654354828803898
0.082416	1787824723269108224	0.00307832155564117	0.0015107233116225247	-0.0017866325472951441	0.0061094401146341	9.769401371039388	0.07434870777944093
0.087350	1787824723275108096	0.0016663831649818747	-0.0005662142936436135	-0.0002556095807826144	0.009770639282153671	9.692432841753256	-0.07633615865681889
0.092322	1787824723281108224	0.000933183642601042	0.0006488894533469036	0.0002368408030834729	-0.04615433000087461	9.790938128773915	0.01425035639475536
0.097760	1787824723287108096	0.0013532501481703246	0.0007773942143206377	4.098868436127419e-05	0.02375223501672595	9.86694313559486	-0.001084645635954222
0.101704	1787824723290108160	2.2072076336361834e-06	-0.0017048289475341315	0.0005567052548252369	-0.045621746925022466	9.807000242644941	0.019423764690384475
0.107159	1787824723296108288	0.0011093142375142768	0.00030519139558705054	0.0003696141626274218	-0.013769475277135554	9.780143372120648	-0.0048264057505065135
0.113285	1787824723302108160	-0.0030434241635552465	-0.0015317460130882476	0.00016185100866056979	0.08606779055533552	9.798715486134165	0.06224197810556021
0.117844	1787824723305108224	-0.0007820879100182234	0.002575093777527448	-0.00042257291708856803	0.052769302277729885	9.825130374868454	-0.013370686904571372
0.121081	1787824723308108032	-0.0017357895446959068	0.00011423524612083126	-0.0012054258063836274	0.10308767386014701	9.793770686371634	0.06512726452562535
0.129156	1787824723317108224	-0.0021846888408267756	-0.0009764201000539063	-0.00021360492752488347	0.11882248628268946	9.78610415079438	0.0006219808097970639
0.133421	1787824723320108288	-0.0028831304390008394	0.0014258098806783986	0.004231554866102026	0.017084531553897983	9.825241804724028	-0.03555282235020294
0.136589	1787824723326108160	0.0009062285275099873	-0.00045298587929548835	0.0010974696369644634	0.020160860947198	9.78100128185045	-0.03466094869086658
0.142433	1787824723329108224	-0.001223857397657658	-0.00220683051548055	-0.0006457846059949216	0.056879549395794725	9.79832735099482	-0.0017222632443819712
0.147350	1787824723335108352	0.0010561640467148057	-0.0014251105097406406	0.0023098772841962916	0.08620585792777728	9.744228597766366	0.09038435327122582
0.150448	1787824723338108416	-0.0011054738000080006	0.00025307557177533927	-0.0014844329191383812	0.030091322300537442	9.736784469322227	0.0639697851462492
0.160489	1787824723347108096	0.0038657066349167407	-0.0009163873396610611	0.002238189733215211	0.010116795386028835	9.812751516335757	0.015083924486680927
0.164222	1787824723353108224	-0.002317732967931952	-0.00057785181452647	0.0027648482481324003	0.04040176523994235	9.71481904062311	0.002412239551988731
0.169094	1787824723356108288	0.0021375678454532794	-0.0016457239833128049	0.0013708322042733925	0.1297374119398127	9.802039177215049	0.04014776247516459
0.172716	1787824723362108160	0.0024229919911894276	-0.00226164533810359	-0.0013225334761507099	0.1219104703459245	9.84583896498727	0.034053006384021464
0.176704	1787824723365108224	0.002512242834738727	-0.0019388928896051309	0.001248133895770057	0.10155486818122743	9.778011496288864	-0.002774425532168747
0.182266	1787824723371108352	0.0013264820612922871	-0.0009817258359103593	-0.0018577465802651434	-0.025626413132146468	9.69314474649551	-0.01606733849129901
0.184341	1787824723371108352	0.0038455561323788036	0.0005286481207963944	0.0019731391146360212	-0.06416808974589584	9.707757590588052	0.027803540092351905
0.194910	1787824723383108096	-0.00047772498201386525	-0.0009427077185977736	-0.0029850258210216253	0.08819355183760265	9.825464334393057	0.011457388775748865
0.200392	1787824723389108224	-0.0011296881806606384	0.0023123627939159153	-0.0006013091453552392	0.12856170556983643	9.73948072148249	-0.018938860269427427
0.204224	1787824723392108288	0.0011603067120147569	-0.0006447205343614916	0.0002946002757154631	-0.02979336420815827	9.787341108344235	0.07705300524605845
0.208279	1787824723395108096	-0.0001322255904805043	0.0006174429956054045	-0.00048450659787275684	-0.02350964752510922	9.795784234660198	0.036055507146519464
0.213634	1787824723401108224	-0.0014312638030283742	-0.0008285148017675267	-0.0019379997545996572	0.0624756727470862	9.79337355611751	-0.003405130213580961
0.217929	1787824723407108352	-0.000721947903459487	-0.00025206291205447887	0.0011894289054972592	-0.01069132173347817	9.83449688551048	-0.005834873973808254
0.223551	1787824723413108224	0.0012383874057403114	0.00046208058697205464	-0.0009598044760016671	-0.02714018712300089	9.797033273386932	0.034422449725240015
0.227063	1787824723416108032	-0.0032336525057079985	0.0018513736172662827	-0.0019567246359350507	-0.004600682865762085	9.715871811023137	-0.019959929024210947
0.235703	1787824723425108224	-0.0005804522614162726	0.0003060233515157164	0.0005311571623082126	0.011842736905950408	9.781735494723987	-0.036628173772807755
0.237116	1787824723425108224	0.000564964788156631	0.0021529383171270964	0.00021957940385785763	-0.018464964567132973	9.722019533203316	-0.005379591425905047
0.240710	1787824723428108288	0.001198125909373451	-0.0029319288169269925	0.0010066819928804332	-0.0017424683870018165	9.726691893050901	0.03486924746808635
0.244925	1787824723434108160	-0.0015304066849858094	0.0007768204647812752	0.0025676291493089516	0.06036358467288484	9.656244645315592	-0.007186720694524598
0.253533	1787824723443108352	0.0008262025811626607	-0.0009428660831071335	0.00035899921243215464	0.006096243251460198	9.789149158469902	0.03052161614121621
0.256198	1787824723443108352	-0.0005453206556471357	-0.0027428512609950235	-0.002259077293269851	0.03331693497865578	9.764769577572856	0.10822358453913294
0.262586	1787824723452108032	0.0008218456185880088	0.002297388810416532	-0.0002475429734080906	0.005471087629165086	9.747233880977202	-0.06210007678168439
0.268695	1787824723458108160	0.00025797660029142994	0.00045024203978868786	0.0027071964510094904	-0.014011138147600424	9.747393493871089	0.013079887562555978
0.271180	1787824723458108160	-0.0002773054089106514	-6.78588889783055e-05	-0.0010340181735349905	0.080515759153242	9.810066519288286	-0.03348077635569381
0.277202	1787824723464108288	-0.0025228753638006384	-0.0006366540807023853	-0.0029706670220139867	0.02895717468347465	9.776838161877334	0.004836981993075371
0.281126	1787824723470108160	-4.440793714482822e-05	0.00025492218180087544	0.0006550516026498763	0.028263382943889998	9.761385229679892	0.00925328725681714
0.284633	1787824723473108224	-0.0011545928926851347	-0.0017261623400410906	-3.8123111723914544e-05	0.0639614284980207	9.858582710314636	-0.027145798305065763
0.292603	1787824723482108160	-0.0009120848981704744	0.00021554728453669004	0.0015267229944716753	0.10592082006402935	9.830421532783793	-0.013296289208791452
0.298046	1787824723485108224	-0.0009654727160989321	0.0016550207815191453	0.0001649485153646257	0.02777801034784695	9.8337102919608	-0.023999039114928344
0.301708	1787824723491108096	0.0005114488585803422	-0.00024985646941932114	-0.0012755119297263747	-0.041807427282699906	9.844700356537608	0.03214561618909869
0.308705	1787824723497108224	0.0004950709000580566	0.0005747387858620794	0.0007253843362073	-0.01291531579759446	9.808223943249509	0.014561314814711021
0.311484	1787824723500108288	-0.0013781064106592933	-0.0031605936848396084	0.000778612690357621	-0.017599708383362368	9.670435026762943	0.07694018883371645
0.315451	1787824723503108352	-0.0005340225901393159	-0.0002248477871183695	0.002203131950150783	0.04090619188156073	9.762593638263715	0.020581693335929255
0.321755	1787824723509108224	0.002755186943832462	-0.004204859475309738	0.0006730681809381207	0.02352741973678002	9.711238189977886	0.021453799599545763
0.327259	1787824723515108096	0.00018302746996194647	-0.001466789081286835	0.0014169004923134877	0.07572939338005905	9.734014295230422	-0.011258001085302068
0.331403	1787824723518108160	-0.0014198325578062552	0.0005199777789206208	0.00045710306886401165	-0.0614795118538182	9.761545856800842	0.04431109663134165
0.335316	1787824723524108288	0.002831863737160811	-0.0018756272184609758	-0.0023225188915552463	0.025374178168935023	9.78944976745088	0.0361095854163876
0.341291	1787824723530108160	-0.0019154016093470322	0.0003152442449314677	-0.001891434095350471	0.06131008122792053	9.727495704225444	-0.018061637409064947
0.347852	1787824723536108288	0.0019004112987174228	-0.002434550891377157	7.839736448163623e-05	-0.003846160787544642	9.799727263565035	0.05485591680101669
0.354959	1787824723542108416	0.0025784470780391127	-0.0025958581951538297	0.00041695317643548603	0.007684667021629567	9.838171788501615	-0.01578805618331635
0.357389	1787824723545108224	0.000667690485389638	-0.0030076540822064164	0.0014633808584817204	-0.048936687943119714	9.731592264194191	0.022659510539486935
0.362219	1787824723551108096	0.001756290294229942	0.0012021437704423982	-0.0016068276678557851	0.04450861696163934	9.749337642694725	0.059289545215149696
0.369845	1787824723557108224	-0.0004496828350029675	-0.003061698922968855	-0.0009558936906400743	-0.009653772803418264	9.791776898381734	-0.003425091830719096
0.370345	1787824723557108224	0.002147424113623343	-0.0017044985852592764	-0.0007577264458790766	0.058019794940188385	9.778676904242968	0.035935569260205524
0.378434	1787824723566108160	-0.0018815822515579027	0.0023451907563276577	-0.00014050209779733453	0.04725128011315125	9.796641819048258	-0.02261398405977357
0.381101	1787824723569108224	0.00017913467228729225	-0.0032277437372126645	-0.00024974055625446385	0.056945869893581094	9.69053443725705	-0.016820351833589646
0.388366	1787824723575108352	0.0015683151827839505	0.0014425520062882917	0.001508318316917222	0.014355730654252713	9.768372820878874	-0.002567221795239674
0.394044	1787824723581107968	-6.72389639050373e-05	-0.0014333829216794719	-0.0011760655376910347	0.030447881412687082	9.757303838800718	0.09378429262026315
0.399450	1787824723587108096	0.0007752160933888008	0.0037617019818531106	-0.000690927743024458	-0.0024642122946224067	9.83496435324088	-0.0012194633132262336
0.402080	1787824723590108160	-0.0012295975665604971	0.0009358188329371083	-0.003559047217166117	0.0059066068656613326	9.74020723352623	0.031352279394754184
0.406398	1787824723593108224	0.0002868077300426294	-0.0005658545133822922	-0.0014381464632498826	-0.052252071031120687	9.763251411683372	0.003420746721134977
0.415154	1787824723602108160	-0.0052758199488702985	-0.001629333202269055	0.0027238493267365254	-0.005220637948646023	9.81968837088319	0.0757022285762458
0.417108	1787824723605108224	0.00030444010378315373	-0.0011947490578382307	-0.0017015876553547094	-0.005824359883606637	9.790211357657922	-0.009099950598273978
0.423933	1787824723611108352	-0.0009381231760359026	-0.002577065415063642	-1.5434256710246666e-05	0.03677578051225944	9.791057176826188	0.03284344093070214
0.429391	1787824723617108224	-0.0012830048312753631	-0.00010212305200201754	-0.0011404156334594946	0.04033256202311544	9.797610311209038	0.05304523244846747
0.432576	1787824723620108032	-0.0024408338713574783	-0.002157230797282565	-0.0022318294318003614	-0.025904869756433073	9.769698343861801	-0.044369998412355866
0.438546	1787824723626108160	-0.001831896779636188	-0.001150781650336383	-0.0015973681799422742	-0.0049938763370892016	9.810297418340753	0.0118369538719533
0.442609	1787824723632108288	-0.0006440185372238422	0.00014960505106485807	0.001557864160422538	-0.012819070273721367	9.897096738834513	0.05446894547614167
0.448474	1787824723635108352	-0.00015627542891845863	-0.0002554303495668846	0.00039063146447190154	-0.07707008260937534	9.802600002249969	-0.01886698329508836
0.450608	1787824723638108160	0.0012313614553872115	-4.172611160067998e-05	0.001872318312900588	-0.0013805383643608754	9.747135427442482	-0.04075865594616133
0.456343	1787824723644108288	0.004682089813625436	0.00332581635516071	0.0017071936265028855	-0.01837946279435977	9.836576597825486	0.01744928247235496
0.463444	1787824723650108160	0.003045539278725499	-0.001828844564586616	0.00047618748956095535	0.07316840599556164	9.756801330012355	0.0487721121613251
0.467729	1787824723656108032	0.003603876030467018	-4.680068698169145e-05	2.150334755190539e-05	0.03854647001069061	9.734213621218364	-0.00674268860152193
0.474065	1787824723662108160	-0.00020336470804652374	0.00199600313234234	0.0032451213257550476	-0.0275116658240374	9.692791684990546	0.01157214881731326
0.476621	1787824723665108224	-0.00014336101537884262	-0.0002119928560741989	0.0010181278038164905	0.05701364827779819	9.842755522121784	0.05210472356639064
0.483738	1787824723671108352	0.0005121602215819742	-0.0010402470804430014	-0.0008244233732777774	0.12409901403883074	9.824277424566453	0.0333380345819914
0.486962	1787824723674108160	-0.000994893177352909	-0.0006085672966671652	0.0002579949811146595	-0.029523867847472095	9.72481485486651	0.05881807476764237
0.490979	1787824723680108288	0.002085565800882835	-0.00043734440170695274	0.0004181275015857084	-0.05177634177745773	9.796638233253457	0.023784357086124183
0.496702	1787824723686108160	-0.0003679698604580923	0.0027506033542468397	-0.0008158017664593525	0.050562816774793726	9.777586058806376	-0.018386080137459307
0.504495	1787824723692108032	0.0007491963687584571	-0.0008542242422260587	0.0019746565047702516	0.048874421966990385	9.8140495061213	-0.06795924737202533
0.508025	1787824723695108096	0.003117767585747713	0.0010891371597249548	0.0032042651736155516	-0.021178815170734118	9.875049924730241	-0.013574079231473662
0.508676	1787824723698108160	0.0020501350114498595	0.0015055539524403514	0.0014020227865279	-0.047800858233738905	9.75778985203228	0.023166681287321272
0.514630	1787824723704108288	-0.0007945200626648744	0.0004450304336494668	-0.0025936966980435318	0.009868794843821712	9.788982993656143	0.05880722826059095
0.523651	1787824723713108224	-0.0021173155790773835	-0.0002617314986121535	0.0005911075093048591	0.04980668759589788	9.742564043986443	0.040406652330731735
0.527952	1787824723716108288	-0.0018211313971210692	-0.00042397933530959997	-0.0011072597578627656	-0.047955444871525726	9.786200614829458	-0.012400286888869856
0.532179	1787824723719108096	-0.001441885325040547	0.0015218721128072202	0.0003367097328249766	-0.01814055687970393	9.796331355346112	0.08494067560654447
0.538550	1787824723728108288	0.0008839432934129631	-0.0010345009686627048	-0.0015620659480043402	-0.03908116750045636	9.756366727877024	0.04780602118515446
0.541698	1787824723731108096	0.002481214337508738	-0.001335487555361676	0.0006480986478011789	-0.0019944127022341746	9.779056420392145	-0.005923390638858189
0.547192	1787824723734108160	0.0024820197062532198	0.000907175028834333	-0.001918929088820158	-0.048783849321734185	9.77597410249027	0.04060457444216492
0.552613	1787824723740108288	-0.00012213924122787356	-0.001131893884773563	0.0005631067613682053	0.013213273472915945	9.762626734942911	0.04471920715633521
0.553988	1787824723743108352	-0.00016567024652219895	-0.0001654734992487035	-0.0006405015311120477	0.02280524952538888	9.755524157885075	0.07351768998365717
0.561417	1787824723749108224	-0.0039779805211372235	0.00190252686651876	0.002064617271863692	0.05092830044272517	9.777911464300052	0.016764248826375516
0.570515	1787824723758108160	0.0016757374835985257	-0.0005767812812421357	-0.0026038268257755908	0.02019320550967451	9.72505976274985	0.05690621661131139
0.573023	1787824723761108224	-0.0003479998129819587	0.0023093178442074023	0.0005406769539670403	-0.05213768425901992	9.761853725853909	0.06331909502404419
0.578231	1787824723767108096	0.002533401151491484	-0.0019484986818137766	0.0017124481913514617	0.09283151504546502	9.728471705614812	0.03100521746432443
0.584383	1787824723773108224	-0.0008695259041623873	-0.001176851235717731	0.0024370247250539968	-0.09663477788947898	9.804804784335232	0.08386867301591863
0.585817	1787824723773108224	0.0014159061819890594	0.0005577529662372318	8.457915515176754e-05	0.0018278343916023794	9.720123784497828	-0.026199204762500213
0.592684	1787824723782108416	-0.0010512060519605598	0.00019799272435022382	-0.002027509854242667	0.07495673034565582	9.765751703368348	0.06972067666095125
0.596448	1787824723785107968	-7.824042982555129e-05	-0.0015254585968141588	0.0029402919952527386	-0.04003064626999743	9.802670740116803	0.025005536868099875
0.603114	1787824723791108096	-0.0005610658268922741	-0.003291882018042697	-0.0004005240438612995	0.10093942499911092	9.798119089188402	-0.014923302222928689
0.607008	1787824723794108160	0.004903699756314293	-0.002591687914919289	0.0011012406955446417	-0.06522139977746731	9.80843591140679	0.010117862174710529
0.611096	1787824723800108288	-0.00028555594502306273	-0.0016252690343526975	0.0004945600742147251	0.05946004564920587	9.831601568514298	0.021288459019841693
0.615714	1787824723803108096	-2.7094200241752062e-05	-0.0008950463770312771	0.0007449340431290016	0.0783241579164394	9.811518626367842	0.031039310352157404
0.624425	1787824723812108288	0.0005103736095834351	-0.0021047529379469927	-0.0006699642323087597	-0.009796314927136434	9.804214603157307	0.002677885001861802
0.626716	1787824723815108352	-0.002373399749187739	-0.0007998231180487876	-0.00011512282336377167	0.07364638308525642	9.781057670395242	0.02377576095461187
0.634604	1787824723824108032	-0.003325628671962655	0.0011935345872202232	4.8423410389864704e-05	0.010762775567489159	9.73653410069711	-0.02834489051905676
0.638265	1787824723827108096	0.00039606635339879155	0.00040292534963445533	-0.002452575543441439	0.03874797722853107	9.842926547440227	0.05588404048321774
0.640466	1787824723827108096	-0.0013381815958342297	0.0032784453103375647	0.0006123374580701758	0.004759886254046232	9.712694069875043	0.02423310592835711
0.649630	1787824723839108352	0.0004358683964054921	0.001330513775566765	-0.0022405242857028314	-0.0012004453308512887	9.772125956228791	-0.004975515442318407
0.652994	1787824723842108160	0.0018905056222666321	-0.00020593385508497973	0.001031306702816912	0.004174606673414492	9.774644990666449	-0.01913998971188604
0.667638	1787824723857108224	-0.001310989334159264	0.00019087342482594324	-0.0007514123010205221	0.0018668596166470097	9.75748070681934	-0.01086720494068004
0.674436	1787824723863108096	0.0010670766328471904	-0.0011150691468384626	2.93920221606446e-05	0.0735540781202402	9.739182101738242	0.043699996248590514
0.678987	1787824723866108160	-0.0009035605179813106	-0.002172832469769199	-0.0002634719801386241	0.022775411401859017	9.78180819452821	-0.0025539988913442363
0.682453	1787824723869108224	-0.0005249956483205024	0.002243254190489747	0.0007329238199820021	0.014776605310450427	9.812337782531577	0.04937939361896618
0.685889	1787824723875108352	0.0009574365408197282	0.0024517558535599076	0.0030065926051788565	0.05205530383396342	9.70149845087273	-0.05308154561551069
0.692947	1787824723881108224	-0.0008682469745906416	-0.000555496290003597	-0.0014467454681791614	-0.01638931368843033	9.758786081614382	0.10241532296057534
0.699470	1787824723887108096	-0.0022042771934487515	-5.205073930113049e-05	-0.0006317306756697398	0.0033388524916823266	9.695869806797969	0.016663126101143302
0.703636	1787824723893108224	-0.0006251121230067344	-0.0012377912112237618	0.0005306937085604892	0.04066169804471563	9.777336619992358	0.004917269431212205
0.709401	1787824723896108032	0.002401608088857011	0.001862013153432314	0.0005373058197535441	0.001039914216488455	9.709183945702318	-0.020521787790532986
0.713820	1787824723902108160	-0.00046624771687876965	7.287013121890392e-05	-0.0005552487444856938	0.06622040041954586	9.762623839366816	-0.008745571672422393
0.716230	1787824723905108224	0.0014906509927100243	0.00230402782678269	-0.000549765621662639	0.003213023839762935	9.814248629462822	0.05679994653663891
0.721846	1787824723911108352	0.0005464990471856832	-0.0006873748190464716	6.0986632183486267e-05	-0.06679231141605928	9.809971616898356	0.05342156101182349
0.725081	1787824723914108160	-0.00016803980729718769	0.001459378117079249	-0.001303330738014334	-0.01577277771942938	9.798536347426962	0.005455580360374366
0.731636	1787824723920108288	0.001525510425141253	-0.0029934306049734425	-0.0013289209049203424	0.0565066014957096	9.791767136752398	0.06301988425219393
0.738387	1787824723926108160	0.0010360052574323192	-0.0001832519756237675	0.0015056447229502149	0.02631431515940979	9.79130118163887	0.061506023084655054
0.742871	1787824723932108288	-0.0014035687487626092	0.001214654636812189	-0.0010241142041805627	-0.011814042655037549	9.813898749814797	0.02294508984832934
0.744955	1787824723932108288	0.0018902598413743405	-0.0012246308171752827	0.0008320437982533781	0.012488487739364052	9.787921300670847	-0.07485617668915749
0.751257	1787824723938108160	0.0013823318101508439	0.000636928164483208	0.0031047334821274193	-0.08878912260321417	9.773859246216457	-0.026307395470706707
0.756312	1787824723944108288	0.002782138592772025	0.000639718429651603	-0.0003671236180508496	-0.018831350714510198	9.80578701547605	0.040238223915702996
0.761971	1787824723950108416	-0.001134425390791037	0.0024804143625322323	-0.0019225016904104624	0.14546537867264808	9.828797204794153	-0.007367192022177102
0.766428	1787824723953108224	0.0008963771605276579	0.0028049603186258635	0.000397561537083534	0.03162450595263769	9.74264323788221	0.017013702003295793
0.772645	1787824723962108160	-0.0007475997125407126	-5.3111430469219935e-05	0.002332621759882052	-0.01487908120657351	9.82792636481141	0.025096053752203258
0.775597	1787824723965108224	0.0011175030425997596	-0.00011683698367296309	0.0015471405992534776	0.09401931800077465	9.815709551976264	-0.005130645350986007
0.784366	1787824723971108096	-0.000991551382460933	0.0002804823637018403	0.0006037432107208275	-0.018637188729215604	9.86159613472924	-0.00932128088271824
0.787500	1787824723974108160	-0.00020353238856753137	-0.0005605401621689046	0.001989410040898218	0.005278478663484609	9.748668701478552	-0.028043816136907852
0.791694	1787824723980108288	0.0017181710178501314	-0.0012970824141584647	0.0022405564716663734	0.06529363844537223	9.826270414635063	0.038399092369124706
0.797953	1787824723986108416	-0.0014675427825819442	0.001172165128174269	-0.0008724575000608245	0.11296122143422378	9.748930976152293	0.02691176958368579
0.802856	1787824723992108032	0.0018276484167803026	-1.3125612288559976e-05	0.0013376725285017682	0.01770736154996379	9.791986085041833	0.04024792612902642
0.806897	1787824723995108096	-0.0019083861670275595	-0.001720799127141619	0.0029648235401856285	0.07814403626384879	9.812590156395563	0.04165169459594996
0.812925	1787824724001108224	0.004970262314882714	0.0014934442318237141	-0.0022616431551878854	-0.006158507240278145	9.745048782056832	0.0015918800483429116
0.818154	1787824724007108096	0.002290920799493264	0.0007595581693368304	-0.001103394039553417	-0.002359471996704214	9.75563488443539	0.016419192816238323
0.820537	1787824724010108160	-0.0012356176266029016	-0.002990415158292991	0.0015040775748750193	0.046114740114100175	9.796255764073601	0.05619094703473096
0.826390	1787824724013108224	-0.0010436457484159208	-0.0019352537147215817	0.002078133229563087	-0.016206112884925093	9.751598846737293	0.061883064463981535
0.832138	1787824724019108352	-0.001616428236221615	-0.0017313578252938233	0.0006272121262514722	-0.024829359013220594	9.828292967750214	-0.027963400083769803
0.836587	1787824724025108224	-0.0016243647809971926	-0.004584797902365148	0.0011523264594561645	0.08731309248776013	9.806075052648	0.046030125122235956
0.840475	1787824724028108032	0.0020781519314119596	-0.0005495320195729983	-0.0016319610982971646	0.03882247299310959	9.831218949576487	0.0012137492563013448
0.847804	1787824724037108224	0.0019123233266971629	-0.0027752272879986496	-0.00029221088383611844	0.03212104496359289	9.794254253397686	-0.12153374211618788
0.852888	1787824724040108288	0.0005159121522554087	-0.0014585707300381963	0.0009968701026601197	0.04118102655018861	9.741209658286666	-0.022635820410308843
0.858380	1787824724046108160	0.0020869279352959914	-0.0009419671345738607	-0.000695632635162471	0.11003609515449408	9.810731206707775	0.08558048831639152
0.863816	1787824724052108288	-0.0003743048709535718	-0.0004896918087054593	-0.001405943380765319	0.004050169442870961	9.735107483226134	0.06102899321857719
0.868017	1787824724055108352	-0.0016959567942466916	-0.0020698924827632936	0.0006870131234106013	0.07469162595473394	9.703449936573216	-0.010122875218139711
0.872562	1787824724061108224	0.00158585873455528	-0.00186359554126835	-0.0007923240405374978	-0.05959238207044866	9.794383222965276	0.10055145101830007
0.877630	1787824724067108096	0.0017386976549193178	0.0015898946463940799	0.0003572791321945379	-0.006037284623938547	9.827580848023631	0.017528204062422857
0.882127	1787824724070108160	0.0006668998086720695	0.002806575820875758	-0.0005646093019450371	0.04593318091281555	9.776219649739414	0.04540444698918458
0.890987	1787824724079108352	0.0015183548862562366	-4.842114260071543e-05	-0.00041342200778139525	-0.05570053767332142	9.776676957688466	-0.03096429389730255
0.893507	1787824724082108160	-0.00042573174100777586	0.00231521980585944	0.0033221980897471686	0.07274683843882278	9.747971993391992	-0.0903055231773131
0.896336	1787824724085108224	-0.0011747672186044182	-7.72626210559085e-05	-0.0021401268737218943	0.0016504548117164813	9.781974628532126	-0.06289415583674099
0.904566	1787824724094108160	-0.0012206055573889042	-0.0014574819345349085	-0.0008711584163931815	0.04171695623286627	9.841199333356297	-0.04198635620139593
0.910228	1787824724097108224	-0.0014560107841696107	-7.966784904136261e-05	-5.084147130586282e-05	0.04697590565592272	9.729016885734268	0.08125172902266299
0.913396	1787824724100108032	-0.0015544693409355003	-0.002639721447253494	0.00116209501108677	0.0330905311157556	9.778852485941533	0.02083810031854374
0.916324	1787824724103108096	-0.0018833437862804214	-0.00022722567635323577	-0.0006626634507787506	0.002674329898847007	9.815087381534518	-0.008012867060160387
0.924243	1787824724112108288	0.0007260023176554201	4.613921027404556e-05	4.63978347408881e-05	0.057083857498760424	9.78392329972832	-0.039300460550007944
0.927018	1787824724115108352	-0.0012344795508038736	0.00038039773547133985	-0.0014789937324901472	0.03652217343817278	9.743048572996491	-0.006796356042484519
0.932051	1787824724121108224	0.001033795102387741	0.0008096794841769303	-0.0024468175276161643	0.0334415535105495	9.807899499484854	0.031078808928520853
0.936788	1787824724124108288	-0.0012142208495360628	-0.0018490868494692033	0.0005661685890807995	0.03069947732960953	9.879597034359271	-0.05021675413095292
0.939747	1787824724127108096	0.0002092864025050378	0.003576493068024209	-0.004004792028521656	0.013799823525327288	9.795430882740394	-0.06059472672663835
0.947015	1787824724136108288	-0.0003559026436004257	-0.0024617414199921248	-8.584507095592874e-05	0.04820031544091343	9.71782658583801	-0.025231077013625883
0.952916	1787824724142108160	0.000974857854771008	-0.0004515514792561815	0.0013159247266204515	0.028724769834507315	9.747434888263367	0.014937004328456759
0.959199	1787824724148108288	-0.0007228104922346087	-0.0030105767481812154	-0.0030636340353534875	-0.01830648353796519	9.715296575899114	-0.02985654612730096
0.965321	1787824724154108160	-0.00147276632630088	-0.0001509559673241644	-0.001289508626568137	0.057819008453281716	9.823354170359366	-0.057155864264694614
0.969060	1787824724157108224	0.002498827676838332	1.7185565889119708e-05	-0.0006958378080000015	-0.007238679972071057	9.77173331463782	0.06926253221218293
0.972740	1787824724160108032	-0.0018691187040913771	-0.0019143104359292168	-0.00019512794389102729	0.026141390915146202	9.717660363991707	0.023652601228343874
0.976248	1787824724163108096	0.002200524930832851	-0.000986196558356761	0.0013591134312422174	0.01963569577454105	9.787787252880118	-0.03912181019362578
0.982491	1787824724169108224	-0.001300601904272515	0.0005529898348311593	0.0028990355882252887	-0.008439248637908563	9.71842075949534	-0.009890550949035872
0.986968	1787824724175108096	0.0007703626707773682	-0.0006450699372335892	0.004139041667019526	-0.0529521931482317	9.72897781798823	0.010388934811920214
0.993315	1787824724181108224	-0.0006952422155631418	-0.0016778653979403404	0.0004751802063140319	0.03176833231831682	9.740097028396931	0.03678431278904331
0.997961	1787824724187108352	-0.00106353095481373	-0.0037184073800373726	0.0009739998141919745	0.049047452660643975	9.720538637398892	0.08630114329414852
1.001897	1787824724190108416	-0.0012517281079180607	0.00232469074213222	-0.001701408027794744	-0.04175187684873563	9.797599518367766	-0.02104657880605637
1.011363	1787824724199108096	-0.0017250253366586866	-0.0004347782406124343	0.0003456874011725605	0.08951074030215311	9.823836048525047	-0.04573067228745386
1.014827	1787824724202108160	0.000927482211217123	-0.0010794521998090945	-0.0006835005569086728	0.11595964254992519	9.697486217788777	0.0016914999804367586
1.022431	1787824724211108096	-0.0005214227266718737	-0.0011389551045229212	0.00246604106897851	-0.016915444390182006	9.715979893673955	0.0809937802737985
1.025211	1787824724214108160	-0.0005120492170135752	-4.8396813992346755e-05	0.002060196443934567	0.07015281691751232	9.831833404458814	0.05169791463047086
1.032087	1787824724220108288	0.004184144894865434	-0.0011557142775798935	0.0005818108748416398	-0.009078952256485976	9.710466780650975	0.060389624506410076
1.039172	1787824724226108416	0.0016237946125057783	0.0018844629770157115	-0.0019046972212706076	0.10489334760308333	9.76528908790036	-0.08996462790345329
1.042629	1787824724232108032	-0.0005876790365945318	-0.0013085629747747042	-0.004094018122265145	0.05831049343531784	9.819447134412949	0.03292230055698184
1.046910	1787824724235108096	0.002233034021727704	0.0015612891115716686	0.0025281099859604866	0.07416465608519729	9.894421313098018	0.02292518210437304
1.054006	1787824724241108224	-0.0018529231718471821	-0.0011365194944257606	0.001036103215349195	0.0429624494860002	9.714484366742683	-0.09641600699581084
1.055457	1787824724244108288	0.0009481055975531936	-0.003142836403971395	0.001388751544619353	0.10693287476307489	9.751781688964217	-0.037236751242604796
1.065142	1787824724253108224	0.00016067145482265884	-0.0018455385195100026	-0.0002170474195002874	0.011291974184758002	9.859039475461184	0.060866002332983886
1.068063	1787824724256108288	-0.0007409332484307965	0.0008643742827606758	0.0021096088466812913	0.027127048892731903	9.818400720320144	0.03257363856726203
1.072642	1787824724262108160	-0.004083132374571817	-0.0004602507331584137	0.0007522452890730837	0.004442082634026838	9.733077644823064	0.028622850476772523
1.078063	1787824724265108224	-0.004167929550103806	0.0009119022839184454	-0.0007119471821852555	0.029056836267259377	9.811366306276566	0.011527901247692846
1.082761	1787824724271108096	0.00024386649535589722	-0.001519231735123804	-0.00446018620859518	-0.0921557603759363	9.77549212291397	-0.005853387966498928
1.087952	1787824724277108224	0.0009853096162101178	-0.001875151669140199	0.0003639635369440745	0.04570724426687206	9.727284568608031	-0.012401940387121092
1.095146	1787824724283108352	0.0016243898666102434	0.001570191839118893	0.0016879035523735722	-0.008037214633407945	9.848556747745148	0.031652420764582384
1.098168	1787824724286108160	-0.0013093765792558368	0.002415529707832816	-0.0016937611422645322	0.09252238603618247	9.772331551391447	-0.0325683249165363
1.102045	1787824724289108224	-0.0007806719203356206	-0.002153675049357475	-0.0012078869107121706	-0.03253300647629583	9.775036568568543	0.05052191395607488
1.107963	1787824724295108352	0.000902015487080064	-0.0009794460528854052	0.00025458817040391004	0.036917689683795996	9.8428744612168	-0.014875045650713445
1.111978	1787824724301108224	8.694695423913117e-05	0.0023959993507557406	-0.0001828603201262301	-0.01311795390257648	9.736983505194065	0.024709080061266347
1.114898	1787824724304108032	-0.0024019292915454233	0.0021557656945485238	-0.001629397861668698	0.05578348150480948	9.778083606487298	0.02077603650844863
1.120164	1787824724307108096	-0.0015697562628975313	-0.0003370224227738853	-0.0011107079746559682	0.008238339245581299	9.803974796899427	0.005359267652756813
1.126304	1787824724313108224	0.00046163927716116876	0.0015565721900170774	-0.0009959074526706194	0.025503880452514588	9.868732000586036	0.014300549920139623
1.131680	1787824724319108352	0.0030813738432718387	0.0003719791443514836	0.0011802409632663627	0.05697806989022287	9.779226650839744	0.019429242205214223
1.136643	1787824724325108224	-0.0024192390124508005	-0.0005435245243005891	-0.0004631525873256642	-0.022087169871592482	9.842234391954168	0.01775977617716765
1.140903	1787824724328108288	0.0005655757912089403	-0.0017346909804674938	-0.0024188691054213714	-0.02082443347311217	9.754969559586087	0.022405631008238794
1.148694	1787824724337108224	0.0013377933922159486	-0.0007590443452341121	0.0004461524636748766	-0.050101395307976165	9.730524583957529	-0.03330021869672644
1.152985	1787824724340108032	-0.0018694720512542895	0.0004295426677698792	0.0019859492378852556	0.02769863534292111	9.731650884806347	0.042809445890345486
1.157686	1787824724346108160	-0.00027491452013306007	0.0012731156057709243	0.003456564566040616	0.060747173835696056	9.837821706926196	0.03306938619963132
1.159888	1787824724349108224	0.0005056888070194595	-0.00018839849191158766	-0.0011724791578495328	0.09318557220079424	9.749645836239775	0.019566832509859904
1.167033	1787824724355108352	0.002449394377777877	-0.0016291517840145509	0.0006634410217579059	0.05355677305582698	9.76092195171336	-0.05169541248875992
1.173698	1787824724361108224	0.001905678207761524	-0.0010878594759049858	-0.00013416802797053438	-0.03040406792865418	9.758169328217779	-0.04869539206617311
1.177382	1787824724364108288	3.893260629607969e-05	0.001930898132743973	0.0032861251520221978	0.05832399257262642	9.72594005262183	0.03352464151980694
1.181392	1787824724370108160	-0.0008475652048129375	0.00045219227891849087	-0.001157179578738082	0.011305113664085662	9.728557253783904	0.0030239444495119595
1.186481	1787824724373108224	-0.0002613029318736676	0.0002954499698719097	-0.0003740607441645129	0.01939658654335071	9.861840519941262	-0.018555666426492444
1.191381	1787824724379108096	-0.0006046954346202149	-0.0016024507604190967	0.001564160868736948	0.010109734736259252	9.757973138984807	0.025743240282428685
1.194911	1787824724382108160	0.0017286708909531618	-0.0015065070338351099	-0.0003094310652119631	-0.02544039966346339	9.725614832053795	0.01961943053005651
1.204360	1787824724391108352	-0.001107776632795656	0.0013475844580327079	5.9727346489695875e-06	-0.05127246959890333	9.821710361315459	-0.010852757708269923
1.207417	1787824724394108416	0.0013767070609642788	-0.0033063576091689	0.0026321797100478436	0.013189398120231257	9.849520627873206	-0.005150803052741557
1.211936	1787824724400108032	0.0010802179105720495	-0.00010871329735545997	-0.00042890177155565073	-0.009963329633313669	9.789591081814116	0.030883335809562457
1.215129	1787824724403108096	0.0021020549783784138	0.0008676755364910207	2.352254609388291e-05	-0.00557431966558904	9.85301372676396	0.014293413838325754
1.222959	1787824724412108288	-0.001176058699408966	-0.0021215233339065276	0.00036328352746640155	-0.020690359852058547	9.73561993667034	0.01206817272699561
1.227636	1787824724415108096	0.002334679709520639	-0.0019129778652761692	-0.0003231617018246413	-0.04452348075675122	9.758483186028615	0.017129950018671188
1.233374	1787824724421108224	0.0010453838983631942	-0.0011629885091738884	0.001030157350724743	-0.02816911474555596	9.763865250675153	0.040651639325594666
1.239210	1787824724427108352	-0.00020149756420709063	0.00033338698726534063	-3.725282197926696e-05	0.024994025227611603	9.700873842511124	0.019496143494039022
1.241443	1787824724430108416	-0.0013046434996178305	-0.0028025115342008218	0.0005915973291588613	0.05071188796964402	9.754111256348217	-0.010714465043800133
1.249969	1787824724439108096	0.00015973177903598948	-0.0010792126261713684	0.0007237734725052222	-0.061312469175210965	9.870258837098676	0.016632930660726918
1.250966	1787824724439108096	0.0006495868989906679	0.00033887290462048946	-0.0010410927215627418	0.10301618821960651	9.85546288584895	0.09652712536947185
1.256861	1787824724445108224	0.00048405293746006157	-0.0007470630114947822	-0.0011458117310275805	0.05401359724357074	9.801843183623314	0.0007232750660829696
1.265457	1787824724454108160	0.0008166907358631186	-0.0014991175407185612	-0.003069088190622433	-0.030171942525321113	9.76445822782213	0.029856824131680712
1.268358	1787824724457108224	0.0010151593114259693	0.0007129280530943458	0.002898719533405463	0.020944790402643743	9.792770912746274	-0.054150947959406545
1.273015	1787824724460108288	-0.0004055719675243222	-0.0020749755622353505	0.0017108011069149479	0.0702165465992265	9.787055193580958	0.014562724892371485
1.277767	1787824724466108416	0.0022424541413295627	-0.0006510093976368537	-0.002370908591330477	0.08779793844398276	9.768474520983638	0.005702863912061085
1.282158	1787824724469108224	8.229814392472553e-05	-0.003368464861582526	-0.00288077867041693	-0.046763843449660045	9.73405693093101	0.031532290243172
1.286300	1787824724475108096	0.001229382995004984	0.0009267404813096407	0.0003260262820074121	0.020284124142696803	9.741171795460987	0.018549001423327875
1.294163	1787824724481108224	-0.0016883892906117443	-0.0008799374696987789	0.0005017151265820751	-0.07203163306062838	9.756002368781756	0.0001502644505762922
1.296742	1787824724484108288	-0.0007274834179311066	0.0014117707752820741	-0.002393546634221568	-0.0504223525688626	9.774084196194435	-0.03937677356418644
1.301125	1787824724490108160	0.0004049671812930231	0.0032632849948254815	0.00011118750250433608	0.048856220716516255	9.806601015623189	0.07207654802548721
1.309313	1787824724496108288	0.0001605155383429545	0.0012332550025258853	-0.0033049368683717236	-0.03180671121110838	9.766014549932796	0.05972904659514515
1.313020	1787824724502108160	-0.00038600525378180425	0.0008711930623681516	-0.000374767307517738	0.06022772406777891	9.80644996980355	-0.01404465787368779
1.317391	1787824724505108224	0.0010986906245872043	0.001166132510135318	-0.0009207192823288585	0.05075822999545476	9.738831227422224	0.08630183116547034
1.321649	1787824724511108096	-0.0016244686466609553	0.0009036991353192096	0.001677329832526276	0.11535436530930084	9.782584182104467	0.05721921409425992
1.326174	1787824724514108160	0.00024700787950690035	0.004283821377463681	6.47143405110659e-06	0.013712056781071052	9.792574249083982	0.01868000103466346
1.332279	1787824724520108288	0.0007270515213446075	-0.001412479457844274	0.002456660839108972	0.06278675292720226	9.754649299154918	-0.039248585200309646
1.337794	1787824724526108160	0.001354141787838452	0.0009566408398235817	-0.0014132990924282081	0.06743013325287774	9.787377606318898	-0.0004930605032465712
1.342708	1787824724532108288	-0.0014704759573235615	0.00033032506832046996	-0.0029370548604748946	-0.023350719056418667	9.776437186148232	-0.03332321522964274
1.346375	1787824724535108096	0.0014238774936499244	0.0037704231169506763	3.698870573478899e-05	0.019613272155721746	9.82710843696828	0.0322981497609892
1.350605	1787824724538108160	0.004050720144499586	-0.00045221225991897416	-0.0027234013858273482	0.004899673631387286	9.796500639020236	0.02267810675226646
1.355630	1787824724544108032	0.0011680170627591461	0.0018403536187352049	0.0030234869145369363	0.09601174132363674	9.77700153183727	0.08635109574312845
1.362190	1787824724550108160	-0.0024112704234115208	7.759099248810522e-05	-0.003073381662038546	0.02333182916884034	9.743350296138544	0.03380991416663336
1.367039	1787824724556108288	0.002270092570706674	-0.00044462551588133454	0.0008393694366120146	0.0327566004250292	9.833544943610724	0.07035599095093803
1.371665	1787824724559108352	0.0017578786116655438	0.001601303877849697	0.00018337396621831328	0.11397700211643808	9.765315275117981	-0.0441109902180002
1.374834	1787824724562108160	0.0015283603419066704	0.002108336504297104	0.0024630708927917797	0.043649033168433986	9.80602881564875	0.02597473318441671
1.382148	1787824724571108096	0.0005265053712954292	-0.0005259260711002634	0.0031690263118230584	0.04154671946877047	9.759392787492152	0.004174864499318552
1.388195	1787824724577108224	0.0003283126736931935	-0.0007094611897661314	0.0002890564480467496	0.06778719720601502	9.746757111942896	0.009132537207276494
1.393236	1787824724580108288	0.002333050837043146	-0.00016976702096965668	0.0018505110345580884	0.05580990383081169	9.78803994696942	0.07071031967643682
1.398491	1787824724586108160	0.0022664320484899543	0.0010802253170850277	0.0016455760097939423	0.08807011110574699	9.784803856524263	0.03116404929403025
1.402809	1787824724592108288	0.00166141875284741	-0.004167310564678332	0.0018578580386918806	0.02655962074059658	9.721622172867843	-0.017657639219128697
1.408449	1787824724595108352	0.0027571901969794073	-0.0007206027069228593	0.001906320414599435	0.00853424182570463	9.786617253729665	0.16330697653353443
1.411170	1787824724598108416	0.001153187345211304	-0.0013371184346173	0.0025266014067431247	0.0234214139369308	9.667684904756467	0.03161213736812976
1.417051	1787824724604108032	0.0005127963377528685	0.0021223114342634156	0.0014706478536436521	0.035143481980616655	9.762581195880518	-0.03255272054809518
1.421157	1787824724610108160	0.0014228707395421494	-0.0033465480394012253	-0.0011896172620211728	0.02946482689639105	9.774782495275197	0.0167965766240011
1.428393	1787824724616108288	0.0006734776276025644	0.0007549761833228294	0.0019841543066173796	-0.06481209005851035	9.7765742531191	-0.0309485391893864
1.434342	1787824724622108160	-1.061171025875884e-06	-0.00020450401881761957	-0.0013938701853224572	0.043696413214231136	9.788277576345635	0.018102063683604234
1.437413	1787824724625108224	5.404455601985127e-05	7.547419182172477e-05	-0.0007590386023762235	-0.06279893133714416	9.719385770908167	0.02636586425172949
1.443083	1787824724631108352	0.0007827478174218664	-0.0017828631239408554	-0.0008372762107491085	-0.0016389335303979048	9.794234020654676	0.021607049157942565
1.447358	1787824724634108416	0.00013510191866779233	0.0002732865281906523	-0.0003402962863821545	0.03103173290027221	9.723195231758536	-0.040544593026578625
1.451933	1787824724640108032	0.000390843473836734	-0.0013060870263987912	0.0027641438206887	0.03630559546848933	9.67737981913814	0.06576806878275068
1.456818	1787824724646108160	0.0016404125576306502	-0.0011526456700996929	-0.001940588782920269	0.02544199262577023	9.82561918408803	-0.010256299865841402
1.459946	1787824724649108224	0.0016243525654797647	-0.0012895740368416447	0.0008597135729205096	0.03453254972371492	9.812112356593406	-0.0276251935911159
1.466103	1787824724655108096	0.0009482435229213863	0.00014279949161559484	0.0002448934206780052	0.022894702430133702	9.809400575141158	0.05171575294176272
1.470924	1787824724658108160	0.0008363511525186141	-0.00042626307824762764	-0.00024078313116022887	0.02633539142369648	9.751457749582407	0.04040107934672147
1.478820	1787824724667108352	-0.002652473782844571	0.0007698017370637046	-0.001028707669559405	-0.004677862605904127	9.833592402745385	0.13295446450133167
1.483885	1787824724673108224	0.0007208893437527224	0.0011659952213513576	-0.0032464593502662038	0.1044592205353821	9.759058820409903	-0.03072934297840433
1.487573	1787824724676108032	0.0015968129160750773	0.00019204896205300516	-0.004063430662065174	-0.006673050881788604	9.724344444940089	-0.03085681497848944
1.491771	1787824724679108096	0.0003018615002586073	-0.0011651388599604221	0.0012108134671657356	0.03593315639230231	9.772032799392077	0.09403278416296165
1.496950	1787824724685108224	0.0009314357502140393	0.0033373825465642733	0.00020759337844972596	0.01517551955393754	9.722286957993518	0.0017771234336041008
1.499808	1787824724688108288	-1.1927947830432057e-05	-0.0018432469138487421	-0.00038873358105401425	0.04307170909019424	9.754325761911119	-0.016949912822104764
1.507650	1787824724697108224	0.0006716853803668465	0.0029338943678911458	-0.0007082331110834336	0.048069144706304655	9.76888160246606	-0.08231586967267808
1.514438	1787824724703108352	0.0032727054641216854	0.0013704609111842919	-0.0009864821675739331	0.05652188722763302	9.787195826989661	-0.03549846471616916
1.518575	1787824724706108160	-0.0004706004051361756	-0.0007503838207692218	0.002463848468999106	0.040769303892248615	9.785893732110644	0.03399784012341525
1.522118	1787824724709108224	0.001221816240683912	-0.002290291707912751	-0.003007601359963745	0.043135915424164825	9.690648533185692	-0.0024533084885034924
1.527866	1787824724715108096	0.0013372773973715241	0.002609712260609483	-0.0010833606312354001	0.07274994235026469	9.781409979310869	0.02257780489213812
1.535172	1787824724724108288	0.0011249693396103186	5.7320938401471167e-05	-0.0015248777994361178	0.03699472262098888	9.821385085180717	0.011929057627315028
1.536027	1787824724724108288	0.0008110351655066014	0.0013204227483280236	-0.0013220710140511344	-0.0016737275545886006	9.800568047992824	0.005897416173981162
1.545294	1787824724733108224	0.00025663459643851663	0.0010571082450044492	0.0025027086720357666	0.19698962728643943	9.771059600594267	0.03969560728353411
1.548880	1787824724736108288	-0.0016352997149727331	0.000703406284335616	-0.0007609597778844656	0.08998522752821722	9.78545145973068	-0.04919630757168751
1.552241	1787824724739108352	-0.0026914015658823535	0.0010394471829892268	0.00014526710889607687	0.018389183503664544	9.738729506886276	-0.001196709444312001
1.556399	1787824724745108224	-0.0004348511287321539	0.0028192585905810435	0.0020202905866943065	0.03541186791040474	9.783131335915844	0.016617877234570255
1.564194	1787824724751108096	-0.0007618819544936506	0.0018748039394310976	0.00014033855231469677	0.025663151085820256	9.745339096806422	0.03406114347759491
1.566200	1787824724754108160	-0.00019578866777932865	-0.0008456526458920349	-0.0007264622584348117	0.09050414847471346	9.783721051007463	0.031268478476143294
1.572297	1787824724760108288	0.0012457977744953208	-0.0024845105983835516	0.0007435391142568625	0.04029093637793918	9.721808842270354	0.027117315782018012
1.574922	1787824724763108352	0.00022239888543290593	-0.00045252070289830053	0.0028802489415055872	-0.023563420825026694	9.783101879929939	-0.04494123411157078
1.582078	1787824724769108224	-6.724421634797509e-06	0.00232432903177577	0.0038441285560680315	0.03528237701880995	9.806059007554131	-0.02069911878999188
1.584851	1787824724772108288	0.002439957404206531	-0.0012244039730792806	-0.00042062832315027806	0.030394912351585788	9.806086225498076	0.003758484930389952
1.588949	1787824724778108160	-0.0001725681452417012	0.0012798682905085959	-0.00022488699035958342	0.009587560055822756	9.873810665788831	0.01005573842159485
1.597203	1787824724784108288	0.0026215290312113938	-0.002272338965709888	-0.0008402636829668391	0.03760977709185791	9.815912942297087	-0.07087570017976097
1.602453	1787824724790108160	0.0016818840285597557	-0.0020898210728692453	-0.001065133016772574	-0.04666706438494615	9.826327760935607	0.07959648582916658
1.607865	1787824724796108288	-0.0005581908888502433	-0.0022548981437933067	-0.0005814383003560157	-0.001459846981906477	9.806072114705819	-0.04243211459270477
1.614279	1787824724802108160	0.00013133965018991987	-0.0009322419933784558	-0.001552761245431567	0.04301531590525502	9.802889146297503	-0.01294524578792038
1.618457	1787824724805108224	-0.0014743734809421524	-0.000716128835973395	0.0007864704609495754	0.008528502590610795	9.702070045024215	-0.019650834998930562
1.621132	1787824724808108032	0.0006937167464209881	0.0018347433659857409	-0.0014497584930941042	0.04784768622511068	9.81047612963395	-0.049983892281930384
1.627915	1787824724817108224	0.0008494769315957428	-6.833275563229845e-05	-0.0008800742663203206	-0.02984030216941492	9.803271750166715	0.04122678725259374
1.631055	1787824724820108288	0.0006057685747075275	0.0007475002842628302	0.002069785754070546	0.03111169187138707	9.820550917674852	0.07672215518650058
1.637088	1787824724826108160	8.548848452371076e-05	-0.00019301163818202986	0.0024102905999421604	0.022805914519990103	9.819492347223608	-0.06024151541490062
1.644311	1787824724832108288	0.00038378317470632813	0.0032230641720574086	0.001380792851263745	0.06836222658177343	9.787332844668013	-0.019706428999660727
1.647078	1787824724835108352	0.002493432155028134	-0.0022198195616283745	0.0028726710789983905	0.011495523547524594	9.780542466207553	-0.019711981591807023
1.650589	1787824724838108416	0.0017407776344651423	-0.0011263900255952303	-0.0021967352994896596	0.13085231987391593	9.860153393122529	0.03650383786868183
1.657958	1787824724847108096	-0.00035587090174213847	0.0007782111615614415	0.0008878896865058432	0.06696430182412855	9.70285118409892	0.027661462580045038
1.662097	1787824724850108160	0.0009164273795498572	0.0036306840453736136	-3.1911510309374517e-06	0.05975255558044721	9.797857503314075	0.0279521276012092
1.667836	1787824724856108288	-0.0013437635590607929	-0.0027836711195962	0.0013210855461332051	-0.03893711628049342	9.794127646572651	0.06170947593218852
1.669885	1787824724859108096	0.0015128881284350664	0.000939402931420539	-0.00251500926748658	0.038345081148829216	9.80897070156594	-0.026593388811443568
1.677899	1787824724865108224	0.002199535397322367	-0.0017188308848736524	0.0010338578888819182	0.03359651082999854	9.730537395649236	0.014055665390490536
1.685093	1787824724874108416	-0.0017044849233695321	0.0007126443033303555	-0.0002712614402596038	0.015006633691099577	9.7803801289466	0.010911343155839383
1.688547	1787824724877108224	-0.0008463282778136922	0.0023880481710323734	0.0006467440287740889	0.05239338033057703	9.79254928158829	-0.0598388399461728
1.695453	1787824724883108096	0.0021719488619574576	0.0003407781957893081	-0.0014386548301028482	-0.019659698179022612	9.838265857806977	-0.11234623329238642
1.696122	1787824724883108096	0.0010697929582813377	0.0023268562103063556	-0.0001966907139249859	-0.03472261008465109	9.787195005448014	-0.01829624649840441
1.700856	1787824724889108224	0.00010345146732758721	0.002594368604875068	0.0010069559787212572	0.061528051602039495	9.725379034180763	-0.0006716493387698991
1.705842	1787824724895108096	0.0020036503889203482	-0.0006095949068459926	0.0014759675944258058	0.07765176406243675	9.755409917496914	0.016920148067869126
1.708480	1787824724895108096	-0.0010096578938619534	0.0015271997335392145	-2.2213969245093882e-05	0.0670778826826188	9.784969426924102	-0.0005493794469802991
1.719863	1787824724907108352	0.0009642114115838034	0.0009341920545384405	0.0008000193084582084	0.0274441719414323	9.868958026870372	0.04627381222449412
1.724549	1787824724913108224	0.00032030767693576534	0.00080265851756489	0.0009588004824482025	0.03754019493013582	9.798576512831845	0.06738997684948295
1.725049	1787824724913108224	-0.0014862207949796916	0.0009267345626947309	0.0009951392604787325	0.02733876959972586	9.810864735996606	-0.05748139107463483
1.733147	1787824724922108160	0.0036328949875017993	-0.00044035747764814494	-0.0007169180231126975	0.053221715011077766	9.768849988551048	-0.004699942341862426
1.736247	1787824724925108224	-0.002794686546069441	0.001162454428816056	0.0019396467565292294	-0.006012820574035713	9.773202867018766	-0.059447189181261254
1.745252	1787824724934108160	-0.0011020019030647265	-0.0002618271872665501	0.0004497770986535571	0.04361312779124307	9.862636364267178	0.02269101288640799
1.746561	1787824724934108160	-0.0002351027255903414	-0.0005581900498941065	0.002139118613195109	-0.005929486073094133	9.785937829650925	0.004040131139168627
1.752566	1787824724940108288	0.0003561645422449922	-0.0023491457722030254	-0.0005031151281025925	0.07067627612375238	9.775400667684526	0.05594027943472236
1.756272	1787824724943108352	4.36001977017018e-06	-0.0013242034807756343	0.0007382392137152248	0.041005077532367984	9.749118349727853	0.031064290781926334
1.760268	1787824724949108224	-6.385630753375053e-05	-0.0005031495254244169	0.0008084014639582876	0.05005676903995396	9.803629238826991	-0.012520647218149872
1.769324	1787824724958108160	-0.0012527210855382434	-0.0013477789065799934	-0.0010089871424507734	0.020572734641107406	9.740501616631986	0.001599148687140034
1.771901	1787824724961108224	-0.0006835207211054759	-0.0038169552149998156	0.0015281962521423661	-0.019640558630496303	9.833793005882136	0.006692222292126465
1.775115	1787824724964108288	0.002341727790333845	0.0015032328881758848	0.0007756599781233077	-0.006057959837131734	9.724444556044462	0.08259331513831804
1.781796	1787824724970108160	-0.0008402225776160411	-0.001124641545509991	0.0006778797674771941	0.08452278453236263	9.79159472920255	0.011269297428623405
1.789680	1787824724979108096	0.0018743430681168397	-0.0015845655282143362	0.002205700196069268	0.0044133376781578925	9.797193033806764	0.05665046135789335
1.790595	1787824724979108096	0.00021730556722599571	0.002071222335361019	-5.269746077497593e-05	-0.04978824792161175	9.776405558112067	-0.03977738711179576
1.797644	1787824724985108224	-0.000920438111654624	0.0019170834998282627	-0.0031782669064664643	0.0055518550923952855	9.743080682853961	0.06459021079182742
1.803820	1787824724991108096	-0.0020466397818408658	-0.0010306294468233799	0.0014755617791630924	0.0028219410864907465	9.772574573843096	0.06252919917992844
1.808411	1787824724997108224	0.0008813725608055572	-0.0027003054695770396	-0.00039778818197461153	-0.028857189518453806	9.78611076571969	0.03728881661258922
1.811120	1787824725000108288	0.003463131419246213	0.0004223638639492878	-0.00032771092068450324	-0.008710856711156921	9.771948696786188	0.08516576843953466
1.815244	1787824725003108352	0.0020164101184092296	-0.002566283928634906	-0.0024973498614037338	0.0006942505316856196	9.784514367018428	-0.0007122288820679782
1.823197	1787824725012108032	0.0021704538598866156	-0.0008322813911445486	-0.0025020580810593733	-0.025228540065184976	9.79356605337031	0.041021664239908495
1.828302	1787824725015108096	2.282347370059994e-05	-0.00020008390591888235	0.003661057474448488	-0.07259616954347278	9.738274470332614	0.0028566722757370037
1.830878	1787824725018108160	-0.00237001999086926	-0.0002409347645120431	-0.0011420295457925786	0.044230199713522544	9.8196552886362	0.04540408523983788
1.839041	1787824725027108096	-0.002458692921671352	0.0007724843022983616	-0.000804752496375613	0.04124565100284675	9.846325763763124	0.027975437771359093
1.842187	1787824725030108160	0.0014161594973767014	0.001352142229251261	-6.828337021472443e-06	0.010061008275034453	9.806287406990663	-0.012605989847160087
1.846416	1787824725033108224	0.0019133618997168827	-0.00033121169756138527	-0.0017510804272708085	0.03354727729584586	9.746878528800785	0.036078583891064955
1.851119	1787824725039108352	0.003075275291047774	-0.0013061915013282026	0.0002386586767902417	-0.00598237633493905	9.818666741193956	0.022120298916916366
1.857596	1787824725045108224	-3.569071518977339e-05	0.0020788356223931776	0.0013129155252747866	0.016614764953874928	9.846213117936388	0.02682730648211815
1.860121	1787824725048108032	-0.001121610017937726	-0.0028361502425368165	-0.001027489857093877	0.03415135228569456	9.748153378617172	-0.023345665230090344
1.867452	1787824725054108160	-0.00044427281042370433	0.0029626870301035823	-0.000690359063098404	0.07494377612981777	9.83244554644286	0.009742771171076935
1.872343	1787824725060108288	-0.002436794926606299	0.0008257014129900021	-0.0027032632564293418	0.10737403377088774	9.769346747174204	0.05104948916056061
1.877963	1787824725066108160	-0.0016775075886119185	-0.0010556278593201569	0.001936424296139596	-0.0465177071125331	9.724207202331208	-0.042566121998514776
1.885079	1787824725072108288	0.0011577994885192584	0.00017262046568119931	-0.00036523510050147546	0.0705605549253198	9.750642181977014	0.031576458858993045
1.887692	1787824725075108352	0.001409220163045439	-0.0010521377718807515	0.0008768510702089554	0.0033007836974411446	9.78426713996853	-0.003405272356867023
1.893601	1787824725081107968	0.000575147006168817	-4.919904489720671e-05	-0.002871771095421768	0.008971553228421355	9.887150943942766	0.025902628847163926
1.898325	1787824725087108096	-0.0016215901266643028	0.0006977229030056906	0.0021003929875701823	0.026834437568898105	9.756718696787766	0.009457497539379467
1.901701	1787824725090108160	-0.0016913160862750468	0.0008890859831570523	-0.0016921965442231073	0.0017803273354655529	9.775045798121345	0.026834891755925343
1.906982	1787824725096108288	0.0003690864489889507	-0.0014753939065662465	-0.00024842695548262406	0.06310149576527241	9.672165439812384	0.057094505213716874
1.913126	1787824725102108160	0.0011424531654563102	0.0025350088031326702	-0.0002460510933408279	-0.0036694939984043967	9.796557823467268	-0.022693152745004344
1.918797	1787824725108108288	-0.0006562646924445211	0.0015200391659627186	-0.0014342299300002907	0.019157968122738456	9.830292033858518	0.038632310638864256
1.924196	1787824725111108352	-0.0008723877622680388	1.3469672359059287e-05	0.003079387622033265	0.035717625585880035	9.80620341042768	0.017484955294816355
1.925407	1787824725114108416	-0.00011385679935357511	0.0011020145384073054	-0.001759273191900382	-0.038541304036511716	9.803734426021338	-0.04228306191436804
1.933939	1787824725123108096	-0.00047401291718198547	0.0004878743239559195	-0.0014757019864328022	-0.01673691975750404	9.778700914151354	-0.017240772141045274
1.937474	1787824725126108160	-0.0013764780347825182	0.0008621006167736465	-5.438198107019773e-05	-0.018553498185807565	9.792852449692544	-0.02697603922455121
1.937974	1787824725126108160	0.00041399589018714764	0.001272068662576873	-0.0010478665516297921	0.04121047953462725	9.798910974942295	-0.0016899255239025308
1.946255	1787824725135108352	0.00022337400239415083	-0.0029037778680579026	0.0018806654872604912	-0.015296233927357752	9.733290605758809	0.02746539599214403
1.952184	1787824725141108224	0.0015120176241285384	0.0026648019048334613	-0.00045526787862774844	-0.00604771492274192	9.701877197825931	0.032967545020991654
1.958054	1787824725147108352	-0.0006967770441757622	-0.0010899977410227957	-0.0010891024808982865	-0.0434313675069907	9.789604186852838	0.011917875956147813
1.961370	1787824725150108160	0.00047566533129224717	0.001096637657934063	0.00037471522183177606	0.05392814930135544	9.747397489899747	-0.01638800976210332
1.965750	1787824725153108224	0.0016543761189117129	1.1362121645222369e-05	0.00012714154184614995	0.05661904068453855	9.812386888893847	0.010483454492530214
1.973602	1787824725162108160	0.0011852816490617573	-0.0016271801235593646	0.0009723746434321343	0.036042891822931036	9.745045352385516	0.0013483472738205233
1.974448	1787824725162108160	0.00010694620108448427	-0.0007563416553245516	0.0002377602788854176	0.01923015402566323	9.789712057516331	0.08443629281287124
1.982909	1787824725171108352	0.0002863914825722385	-0.0026265398351611726	0.001753325852838158	-0.039072821370338455	9.804197103839446	0.01401355944234493
1.986637	1787824725174108160	0.0019330835470073144	0.0007707309241064201	0.0027666825662250876	0.07777671979342937	9.794382842937436	0.05966792120341285
1.992223	1787824725180108288	0.006007461325812914	-0.0012216067239689636	-8.241438859954883e-05	0.019039157624593198	9.855489482602689	0.0563841008011667
1.996309	1787824725183108096	0.00138357345407073	-0.0005913570041871938	-0.0006879828579818468	0.01937526307046719	9.739150525428041	-0.05898540620418709
2.004246	1787824725192108032	-0.0001619723147801231	0.002131486776322228	-0.00020614757357411	0.01045744604683639	9.825840881823497	0.014272654858929557
2.008317	1787824725195108096	0.0011569436961933167	0.000523520724392715	0.0003489195979227145	-0.03194939490541561	9.794336064870953	0.04905424073141016
2.014889	1787824725204108288	-0.00011107259903290227	-0.0012431943485665719	-0.0024565311752284265	0.035097760051721286	9.841978191493709	-0.015441116110219252
2.017016	1787824725204108288	-8.478133341196382e-05	-0.001129058593460735	-3.276271827376494e-05	-0.0012633280817169606	9.713221481063893	-0.006584686924249336
2.022806	1787824725210108160	-0.001909664647912096	0.0015851345236917638	0.0012111941222521694	0.07826476289208281	9.714917019574811	0.025801342836169416
2.028579	1787824725216108288	-0.001710305857167305	-0.0003421816994037052	-0.0002912172404474404	0.0029879339694909683	9.762694519408964	-0.04769955554685844
2.030247	1787824725219108096	-0.00012372216064142442	-3.0036352745949917e-06	-0.0014360488425459643	0.08006001715958612	9.75615591607326	-0.03948379693971035
2.037701	1787824725225108224	0.002256459704446711	-0.0005780734789730684	0.00018134450331336286	0.009214257683838564	9.767200626085417	0.02641532438376888
2.043701	1787824725231108096	0.00282915237892447	-0.002659896978063691	-0.0017133326585097729	0.022462634046367294	9.795936967151029	-0.03055292245820667
2.048502	1787824725237108224	-0.0016287648612707392	-0.0025302430456997744	0.0005544031861761441	-0.040074753889744345	9.81909631302972	-0.06323511136784374
2.052410	1787824725240108288	0.002152623049911604	-0.0008065918856596276	0.0012115149013549559	0.010332691286609397	9.801404472732239	0.04949972118749643
2.058089	1787824725246108416	-0.0008901946906948436	0.0011901153834897676	-0.0022839160796424124	0.0356133667659525	9.743393440275803	-0.019632197970770204
2.060570	1787824725249108224	0.0008100362163961708	0.001366252333517319	-0.0004986225573412371	0.09832825019559087	9.789529338100587	0.0171896832812083
2.067848	1787824725255108096	3.3040645230729206e-05	-0.0022007310421573245	-0.0007430916465447588	0.02829415057701999	9.772230021876585	0.03525201683177513
2.074481	1787824725261108224	-0.0031725856953178136	-0.0017649458114825552	-0.00118689820828292	0.03309396208086367	9.792523837913398	0.04319765909867795
2.076029	1787824725264108288	-0.0007913064767096884	-0.0011160168693587491	-0.0002514846611801946	0.022422185935811925	9.810030442297588	-0.10599937438762061
2.084401	1787824725273108224	-0.0005288804423105959	0.0016431740385063217	0.0022018561621113667	0.023866481745224016	9.749452726276932	0.0634389043464558
2.086809	1787824725276108288	0.0007750256211727928	0.000869420378396552	-9.507957093944034e-05	-0.0067174194820230765	9.765838994634581	-0.01710044707815929
2.091879	1787824725279108352	0.0022867496265733026	0.0005778402827537018	-0.0007261144735510572	-0.02579989591431922	9.770409005023254	-0.012865441196625083
2.096164	1787824725285107968	0.0017905876726504073	-0.0014514933268540504	0.0004216860859446026	-0.01820703051030091	9.767656228610567	0.05107762969176433
2.102484	1787824725291108096	0.0002575571507079507	-0.0019504308005751914	0.0008533867653796089	0.050881991421384276	9.78362332911901	0.004654345577488225
2.106219	1787824725294108160	0.00021646219546557786	0.0011933901686294432	-0.002218123464859367	0.02419333369509992	9.74917784965332	-0.0044017179791351405
2.114016	1787824725303108096	0.0024271867235661974	-0.0010973737703140734	-0.0009912436951211641	0.028384264311372323	9.758112299307879	0.017607971114381813
2.118116	1787824725306108160	-0.0007776372477107252	-0.0027308118048751757	0.002106919348751034	-0.007559082900030191	9.799881059526346	-0.009743492874773892
2.123971	1787824725312108288	0.002850459873446034	0.0008151836820351735	-0.0003401271602693462	0.046659982949275994	9.826052969428913	0.07725632435946832
2.131032	1787824725318108416	-0.0014751203454701001	-0.0005535824879937816	0.0001588862870974905	-0.026740497104712664	9.707228037851504	0.08421624221857917
2.131532	1787824725321108224	-0.000616799790125334	-0.0009334197013051706	-0.0018398275415543821	0.027090191704650733	9.756544244181047	0.017885900842060237
2.137499	1787824725324108032	-0.0014905254513227022	0.0012058105134332491	0.002240936394248454	-0.058077072564683266	9.752640073593813	-0.03258983151079274
2.139810	1787824725327108096	0.00166980757370427	-0.0024941240649889785	0.0006996759405287834	0.03941775082368962	9.727935493781105	0.010854950440268558
2.146597	1787824725336108288	-0.001557488486825172	0.0008756135195446355	0.001485136193689296	0.022617688144965724	9.700786227849234	0.01228769064933023
2.152955	1787824725342108160	-0.0019923855832421583	-0.001301161376906337	0.0010480128083682051	-0.01651831160963208	9.775807046930007	-0.0793170704784037
2.159567	1787824725348108288	0.0008017615681257317	-0.00129338753729352	0.0018251249983990924	0.06351162555606685	9.799603153256266	0.028199834641355323
2.161126	1787824725348108288	-0.000519927180018412	-0.0014974284325489895	-0.0016484438565742912	0.05051006328814832	9.759778289408038	-0.09519969595150206
2.164050	1787824725351108352	-0.0006560677727501137	0.003262364665007581	0.0020113437979717447	-0.05929394221015069	9.784368294112923	0.006162500488571209
2.173695	1787824725363108096	-0.001334399646137263	-0.0007724720932583431	0.0031223998175226243	-0.05234162204704189	9.806122744266734	0.06392859271887341
2.178013	1787824725366108160	-0.0020874697787355086	-0.0008212079034078644	-0.002490086632321162	-0.03517256731965543	9.801992728008326	0.04967634522061907
2.183726	1787824725372108288	-0.00406289401796579	0.0024009804542975207	-0.0010759280985446682	0.008010674324179758	9.707337184356277	-0.03970545210902934
2.185551	1787824725375108352	-0.002670698612823392	-0.002243099994409063	0.0006403285622254935	0.040776593276718634	9.760646748514038	-0.04837856424235956
2.191142	1787824725378108160	-0.0006353796267157966	-0.0006091975157299485	-0.0008797345470076281	0.019017017744654672	9.833745367044859	0.08072249125816922
2.199798	1787824725387108096	-0.000264202288999876	0.0015760649947215509	0.001317832973794551	-0.007181532708662914	9.784306761870146	0.006386055690752771
2.203180	1787824725390108160	0.002097775332151889	-0.0014953175142237015	0.0034009107122619773	0.04626080440549453	9.781882700486548	0.08018362246711744
2.208511	1787824725396108032	-0.00043978423277004334	-0.00165414999919791	0.0010221644053070886	0.06639660691211541	9.751031564592353	0.08095634484006482
2.213651	1787824725402108160	0.0009470538009981637	-0.002262331259172871	-0.000748139407083575	0.01847881758515829	9.703116711651248	-0.01881341533424049
2.217350	1787824725405108224	0.0010426525580846506	-0.0007749302906033615	-0.0015227561478015131	-0.00016407690708840003	9.757830446763696	-0.0021632901740829893
2.221433	1787824725408108288	-0.0023910098640259427	0.00018948132220968897	0.00027836375604522225	0.023207451929848417	9.784158771746512	0.10464917234740691
2.226842	1787824725414108160	0.001206245800881042	-0.0007258156768816971	0.0008451969493860683	0.00701088631921723	9.74786103520793	0.061133341479609145
2.233415	1787824725420108288	0.0031388830231371474	-0.001625040654957321	0.0021734564054372296	0.04194430776150988	9.775507916782894	-0.013864863560077847
2.236298	1787824725423108096	0.000395409918364532	-0.002400264663455127	-0.0014612182622059863	0.019152359892604835	9.790327395228017	0.006260759395743614
2.244544	1787824725432108288	0.001286735275700598	-0.00019628560491223224	-0.002132503629368303	0.008872957827722952	9.721813373723117	-0.05132008746562157
2.249750	1787824725438108160	-0.000290490406342136	-0.0005006410838225748	0.0003985380101581438	-0.0014284024801705444	9.754102811890652	0.020975957088012642
2.253719	1787824725441108224	-0.0023527359425132587	-0.0013977317249582735	-0.0001980335153947998	0.01799261016760346	9.744679740785193	-0.012059785170758532
2.256980	1787824725444108288	0.0003995419164649745	-0.00048224759257145566	-0.0002901256689580332	-0.0666754513201623	9.79395261124743	0.03148669654524281
2.260779	1787824725450108416	-0.00013039172587766358	-0.004501273188017119	-0.001220200501209226	0.0838945492938265	9.719448405189807	-0.06118258230020035
2.269367	1787824725456108032	-0.0002300625615752944	0.004534569237749327	-0.0007780847798640315	0.019201619731929343	9.799714630105976	0.10060919015908662
2.272636	1787824725462108160	0.0008260071878813595	-0.0013555293725934566	0.002674216653996608	-0.004206644581784498	9.764966550523049	0.009054847179138206
2.277170	1787824725465108224	0.002887189012667382	0.000908966471162348	0.0016099908895248235	-0.04072038538378504	9.735918203461505	0.04781452160141057
2.283863	1787824725471108096	-0.0002544408189243985	4.026687742505992e-05	0.0007329487489504324	-0.020221989132376578	9.771450439791103	0.028822196285637765
2.287684	1787824725477108224	0.0015675492175701185	0.0007475782501857775	0.0005609686195061455	0.049252316778219035	9.780787210934875	-0.007188593229683175
2.291431	1787824725480108288	0.0009422836840875222	0.0015599089344486515	0.0016472424117370149	0.059338775292695926	9.882123003508248	-0.04714963872040324
2.298664	1787824725486108416	0.0005366188489257974	-0.0015966080213845781	0.001972282438996323	-0.04926459671630844	9.854619085500522	0.06810970366139665
2.302587	1787824725492108032	-0.0009948983572695368	0.0019059911718843092	-0.0002485597386851726	0.04887013347585706	9.720875234664787	0.033562687585730736
2.305927	1787824725495108096	-0.0010292032253606124	-0.0013289051742612122	0.000986305462386281	0.02010820324945769	9.810383020806537	0.03328342826548794
2.312022	1787824725501108224	0.0016150272605749904	-0.0011942892351147322	-0.0008767582052854088	-0.02637420133738505	9.728226598925444	-0.011401388280375544
2.319230	1787824725507108096	0.0014107515077007842	-0.0008196824331532947	-0.0007364035938879455	0.022269556089151835	9.746563546684289	0.01693198929675494
2.323930	1787824725513108224	0.0008742449124913745	-0.0008608594753646995	0.0010173325704235265	0.05463748449473391	9.77727255511856	0.06860330579642776
2.328126	1787824725516108288	-0.00275140748282272	-0.0035153784319934896	-0.0004282134148940978	0.04355688988922106	9.79383838753094	-0.008711142790692288
2.332379	1787824725519108352	0.002019185911083452	0.0008252312206184012	-0.0024764507484260102	0.057201904741379955	9.832130176206162	0.04571495828758504
2.337308	1787824725525108224	0.0001001227418880041	0.0009851840334871415	-0.0022877416837734452	-0.028925389266572586	9.839088255474891	0.061232380587876195
2.344508	1787824725534108160	-0.0013578637901147598	-0.001476498248855572	-0.00044513181495634544	0.1409019800379653	9.790634322326179	-0.08757287922252381
2.346500	1787824725534108160	-0.0006391942527864934	-0.001982260216339567	-0.0003976443769100251	-0.001849255233606007	9.770609721814253	-0.004445306658831166
2.353984	1787824725543108352	0.0006932921434754791	0.0018600197751918483	0.0009772732647934242	0.041232194008683956	9.792409496124455	-0.08473164490290945
2.358523	1787824725546108160	-0.0005714725453491478	0.0021851926217610245	0.000593446607514032	0.03488791644098293	9.753068903195265	0.02794601062408715
2.361270	1787824725549108224	0.0012610023776473893	0.0014708794599555927	0.0015115249419858322	0.08710920417740532	9.811186572140821	0.0023237197974916354
2.368751	1787824725558108160	-0.0002922660668922458	0.0011461251970317167	0.0021118207380843327	-0.000978682815234569	9.66497055349787	-0.06964758756549672
2.372516	1787824725561108224	0.0008705467107894011	0.002440964289753366	-0.003770712746157606	0.054005257980702895	9.779517825844593	0.11926212611241732
2.377883	1787824725567108096	0.0004694449231671018	0.0012688062132369718	0.0005383525394621326	0.03815839162920849	9.731398060622208	0.027713629094695866
2.381600	1787824725570108160	-0.0011660175834773297	0.0007841528427859294	0.0002642274116907564	0.011012246436510399	9.80451975685566	0.019575824282768804
2.386126	1787824725573108224	0.0012784239286718984	-0.0004148108210188545	0.0027561534553972758	0.07314594757391184	9.796363381161122	0.017828989085887186
2.395128	1787824725582108160	0.002626182699711097	0.0009505809489916371	0.0015269589230862885	-0.028328620199334388	9.776513261921163	0.049688851998292774
2.400235	1787824725588108288	-0.002725533267027315	0.0008033474043418714	-0.0020970954458217556	0.05586554697743572	9.755746608734198	-0.05909561097972829
2.400735	1787824725588108288	0.0017733696415919047	-0.0020376639669205422	-0.0017957193125661898	0.08003371487873545	9.758068573396809	-0.046352338165378835
2.407364	1787824725594108160	0.0001491608018985626	0.0012965576552667493	0.001340018262565745	-0.011690667484280888	9.774594032089585	-0.027340713818673687
2.412756	1787824725600108032	-0.0009166118316143588	-0.003910018237949552	4.981184303913533e-05	-0.030253988757702896	9.808601093890642	0.06436429484600917
2.416589	1787824725606108160	-0.003171730620242469	0.003537045071234855	-0.001358840454013908	-0.03819182360800324	9.887940823255773	0.0582494858925605
2.420593	1787824725609108224	0.0012799403331133705	0.002064190340020849	-0.0009440593209342777	0.04847375694508888	9.851022711882974	-0.05533280343938789
2.426706	1787824725615108352	-0.0019357773598395415	-0.001400859939028645	0.0028615256377926526	0.027669276469405903	9.731318386069663	0.02716951527177522
2.434199	1787824725621108224	-0.0006361188084258763	-0.0018899938921088134	-0.00023401358308181944	0.012761821466953278	9.750088227229531	-0.014004833261120932
2.437571	1787824725627108096	0.0001598796422887493	0.0011792624406436554	-0.0013137493260945697	0.036178796997922556	9.803796640450301	0.05778901508717524
2.442595	1787824725630108160	-0.00017141955611664413	-4.4465903567671383e-05	0.0010940976757786065	0.05886162493207061	9.768937271640578	-0.04008521869437453
2.448041	1787824725636108288	0.0007158000110472683	0.0002304652083084808	-0.0020721282954816365	-0.003296079787881285	9.675644629831153	0.03665092798532793
2.452310	1787824725639108096	0.0013362439123834134	0.002016249361493152	-0.0011513057818989642	-0.011881819893076018	9.777441186058715	0.017256377724054316
2.457305	1787824725645108224	-0.0030420118475625725	-0.0010041311716189798	0.0025002400732709812	0.023857088767668223	9.804419147593498	-0.027497344555434566
2.462707	1787824725651108352	-0.0011093369079606635	-0.001881104318928291	-0.0006967038604519778	-0.05553923626872384	9.85708318460886	0.031069661445741054
2.469159	1787824725657108224	-0.002309777859515056	0.0016081039959403498	-5.4983150325140694e-05	-0.027847257543989555	9.7877473835863	0.04732575129710053
2.473951	1787824725663108096	0.0003285808833441237	-0.0005508059605346127	-0.0003435470227942287	0.02701669682634931	9.708027683608236	-0.02066342805556875
2.477693	1787824725666108160	6.688420371440688e-06	-0.0008358476822490318	-0.00033301141325287254	-0.023981862981722023	9.803278156987462	0.00853669534182865
2.483139	1787824725672108288	4.1547489803302925e-05	0.00027285094238531057	-0.003745208351065696	0.06774684585612875	9.80174964474565	0.043649622897947354
2.488300	1787824725675108096	0.004292961304885212	0.0007691179699662442	0.0003354215602188911	0.00674363433446013	9.809581080269103	0.0317007042967591
2.493266	1787824725681108224	-0.003689214437276172	0.002032396969588399	-0.0031694078651598135	-0.0022407589339521992	9.797941411310845	0.033002844042033797
2.496664	1787824725684108288	3.806147763815788e-06	-0.0019798507391672925	0.0014054130762490191	0.049217734953690334	9.714972793904739	-0.047951182716520754
2.501724	1787824725690108416	0.0016974037589028445	0.002912586101943305	0.0013106743019685142	0.09859467715815917	9.799763034837978	0.03980259909609303
2.510182	1787824725699108096	0.0023940461527191103	-0.0008021427565956534	-0.0014193405950662355	0.058675546802617065	9.801445128043774	0.024297063847096755
2.512015	1787824725699108096	-0.0008848982799940902	0.0009391073507445731	-0.0018101969247392485	0.00589160786306508	9.78259293250663	-0.027718605089201834
2.516075	1787824725705108224	0.0001533299144707492	-0.0004845120721282115	0.0003078803931154255	-0.04424492248120951	9.715027784896117	0.08825999129236181
2.521941	1787824725711108096	-0.00024767196330881025	0.0016410972944984493	-0.0011536914001998762	0.03641183172811904	9.850917762988843	0.018118250071066933
2.528062	1787824725717108224	0.0014456457018658436	3.816954716475622e-05	-0.0016390629494942917	0.019166733793923297	9.734386467108699	0.03458610025147764
2.531258	1787824725720108288	-0.0008021423606104839	-0.0008671801159999919	-0.0005379547757209391	-0.017933494066761785	9.851178001610512	-0.012946801925475069
2.537151	1787824725726108416	-0.00011802017695540627	-0.000511046624882047	-0.001169717083766037	0.026577025458944126	9.764164831468909	-0.017761017264007563
2.544484	1787824725732108032	0.001030289416495638	0.0004158062459937872	0.0009031274119002182	0.045901472316526026	9.858597166641966	0.018287199598809232
2.544984	1787824725732108032	-0.001001574656297662	0.0025381743860296807	-0.00034236190444953356	-0.00029227985080458943	9.796304498878294	0.0067703458831838755
2.552269	1787824725741108224	0.0019967112558995016	-0.000775789822425812	0.0002431519763374251	-0.005571368748310775	9.729970188347263	0.09521312421625883
2.557840	1787824725747108096	-0.0010501181485021245	-0.00030860909084178976	0.0005573875282388338	-0.02857332961599708	9.871208414847883	0.03150350269999036
2.561502	1787824725750108160	0.0007496413040551092	0.000898128374366286	0.003146764072679325	0.0067361710614494506	9.834365932848415	-0.030467920720452714
2.566917	1787824725756108288	0.00522301051556363	-0.0014567344850284075	-0.00017928335804215755	0.02373096277372649	9.782663489879436	0.02708208755734616
2.569186	1787824725756108288	-0.002292966251132661	-0.0017707854530985324	-0.0027056588680845713	0.05729300521952404	9.78618516663672	0.09253458924717586
2.574725	1787824725762108160	-0.0009892827942106352	0.00012590327378962635	-0.0022713661930806543	-0.05563895503277026	9.76948682872741	-0.0396814228400021
2.586495	1787824725774108160	-0.0025330681013353523	-0.0013835181101621824	0.0007332406678984975	-0.03185079303207671	9.802771498041508	0.0595783363148878
2.589032	1787824725777108224	0.001351815949115303	0.0014989654378175505	0.0005050607358256568	0.027470092640495093	9.804415621757105	0.01676910420357128
2.590127	1787824725777108224	-0.0002345399568232321	5.675160161152496e-05	0.002167002491865556	0.06520368572756952	9.710844105518698	-0.03396835851059427
2.597551	1787824725786108160	0.0010407102383220234	0.0013081195107712417	0.0027903567459250495	-0.0251138498390973	9.827975851303016	0.05598770144538392
2.603947	1787824725792108288	-0.0008969653999122939	-0.0008330687795086009	0.0009955952440652113	-0.0038956041891487735	9.821976715778296	0.007248662849977464
2.605771	1787824725795108352	-0.0013658044534680626	-0.0007330949667035823	0.0017073004334921071	-0.0040920826718097054	9.70168947073329	-0.002484836149960489
2.612725	1787824725801108224	-0.0023968030707643205	0.0003264034676064793	-0.0009018891676250939	0.02565017200927464	9.74223421118365	-0.05413318701141959
2.614988	1787824725804108032	0.0025652495198880887	0.00047020728743429137	0.00079960643322897	0.08159299434455372	9.754892816115262	-0.037783037614855144
2.622023	1787824725810108160	-0.0015507212387766882	0.0022245604712957745	0.00023594222890869693	0.042388491525963884	9.641008306028825	-0.00765530391907774
2.628358	1787824725816108288	0.0012184065362733302	-0.0014059263992000312	0.0004253657408664195	-0.021178208692996935	9.778595925346238	-0.007660544134015589
2.632209	1787824725819108352	0.0010375311140577957	7.834365192169686e-05	0.00105884941801956	0.07180767063942275	9.7027865269928	0.06497008441309421
2.639762	1787824725828108288	0.0004783346821816442	4.5836001940529036e-05	0.0017576174632364767	-0.013474649035270646	9.76715536395745	0.06562434326892333
2.642195	1787824725831108096	-0.002688886319197656	0.0005903391498199278	0.00017095579904985152	0.04605027873182345	9.783958164268979	0.024786257112246513
2.648597	1787824725837108224	-0.0008654820685142375	-0.0026883404328494954	-0.0012708875280257304	-0.04621277005936188	9.800991390079044	-0.02714233246561267
2.650262	1787824725837108224	0.0022244094813117328	-0.002599111657144089	-0.000888638970294049	0.01755275382802138	9.727508529363936	0.026144219442967565
2.657591	1787824725846108160	0.0005010256974038478	-0.000599688719609099	-0.0029000086727646885	0.05483964090112738	9.804074774238407	-0.04328204238818169
2.663491	1787824725852108288	-6.203658139240354e-05	-0.003035341577488636	0.0026661686017950114	-0.021096121516526706	9.772615367819864	0.023543193813911886
2.668247	1787824725855108352	-0.0010499457038414459	0.0014080636747304846	0.001566809255920792	0.07868820045808078	9.779563920694137	0.054676666707424666
2.670739	1787824725858108160	-0.0003473011788039958	-0.0010807937603718703	0.0007753410265745644	-0.025590806038683064	9.786166778470301	-0.029956569097413184
2.675755	1787824725864108288	0.00010972167696470912	-0.0010331170983941438	-0.0011411677256197594	0.003359410176473756	9.766188976026163	-0.08094860302102454
2.682456	1787824725870108160	-0.0007237890846927931	0.0015567856970767114	-0.0024490783891192437	-0.04342477345772815	9.78539332270784	-0.022093039373405267
2.686970	1787824725876108288	-0.0002926913831584525	-0.0018012583905499134	-0.00225606795671066	0.07200797282696533	9.797118331346852	-0.07640574356394485
2.692724	1787824725882108160	0.0013393116351794404	-0.0030159940029988817	0.0009009336740237829	0.0005121657622402971	9.853425839491722	0.06180555166313199
2.696968	1787824725885108224	0.0006149813145190648	-0.0034958364348188077	0.001725261546297541	0.06032177101538905	9.767459329083808	0.01123909600728976
2.703237	1787824725891108352	0.00044598320456089513	0.0004916383960800559	0.0024768834899448157	0.09719253771618191	9.746031576944995	0.0883744407076054
2.707114	1787824725894108416	-0.00010990674400916348	-0.001355728484168571	-0.0010604957040015774	-0.06244090549573279	9.815713325476052	0.0814222824464167
2.712791	1787824725900108032	0.0020499483073200876	-0.002514205938709406	-0.001233994684350482	-0.010682176532737609	9.764545377385925	0.0005923490120426783
2.717351	1787824725906108160	-0.0019843827260678914	0.004394103079149648	-0.003728999510814469	0.028581170450282394	9.798790842220107	0.004542742050520172
2.722447	1787824725909108224	-0.0017883589090825474	0.0007411102517144504	-0.0003652420071016717	-0.005095665098394871	9.823932135610072	0.05697083638813516
2.730679	1787824725918108160	0.0006882204797781187	-0.0005239446678303209	0.00031820854606247	0.07817031927977125	9.74097774799466	0.025346842489899615
2.731445	1787824725918108160	-0.0004115635366987956	0.0008061484672009108	-0.002252180800031783	0.05716330831107401	9.807054423733474	0.03937837476488283
2.738836	1787824725927108352	0.00021483846902123458	0.0016949132733670165	-0.0022137026739117646	0.04622517927442213	9.761535293462046	0.053113592699263926
2.741707	1787824725930108416	8.435347658165089e-05	0.0005779462291038019	0.0007089927651619486	0.035768614285942024	9.739298255511796	0.02259897553416014
2.747560	1787824725936108032	-0.002142033473059506	5.328715067763845e-05	0.0017028756622271585	0.0035417187239851905	9.701347253320613	0.049900932693970855
2.751844	1787824725939108096	0.0020505046908196683	0.0008887459769621746	-0.0021832313288119476	0.02747298201599392	9.74557290936855	0.05260367154993158
2.758333	1787824725945108224	-0.002209804542748252	0.004071893116689572	0.00020749787622297014	0.06073093046622966	9.743184686075283	-0.018297301547115327
2.762283	1787824725951108096	0.0031114990896540834	0.002536091489187886	0.0005562656499832148	0.04213115902690982	9.806885710158067	-0.019249393008968572
2.767255	1787824725954108160	0.0015835391070135878	0.00222476967519271	-0.0009057382883579521	0.011795184659896046	9.745969720730086	-0.06598884632920532
2.771008	1787824725960108288	0.0017685063965490258	-3.0923458188248303e-05	0.004071685671027819	0.07216000736989273	9.790169332748825	0.008217403097662435
2.779551	1787824725969108224	0.0015773415670048078	-0.00022392713254603934	0.000905683420655619	0.09328060708951405	9.777454117825128	0.03673336734540425
2.781634	1787824725969108224	-0.0017646420682856001	-0.0015892252827676787	-0.0012841920015468874	0.013858757444995186	9.782928767851732	0.035703739110672365
2.788524	1787824725978108160	-0.0004463177545385297	-0.005850633230204389	-0.00188681418689638	0.025755833229742557	9.769583645651627	0.004007034329747186
2.793430	1787824725981108224	-0.00309731411639653	-0.0009727731619914189	0.0003005847686434363	-0.019484582226646487	9.792799666266294	-0.062120391108987066
2.794846	1787824725984108288	-0.0010388190653089968	-0.0031215647079162324	0.001850868894340155	0.015734531587358963	9.72300606740992	-0.03247804888934753
2.800050	1787824725987108352	0.0014080281946491054	-0.00015042037374146322	0.002439946271086681	-0.03314198508973273	9.79180881766808	0.06974557651718405
2.804509	1787824725993108224	0.0007680208264932668	0.0010705843231168517	-0.0010662585322228416	-0.00025534983768837893	9.813334728338464	-0.021621318177504185
2.812979	1787824726002108160	0.003889723188261301	0.0009491802132003883	9.071127894276467e-05	0.03332754082969769	9.734860254978107	0.030329195016555226
2.818004	1787824726005108224	-0.0006320695882266639	6.149513270705233e-06	0.0002779479010272833	-0.001223135990123518	9.746718793698955	0.058160460010189506
2.819947	1787824726008108032	0.0021196148992049	0.000559344205638395	0.0014114376982832164	0.04896653495346025	9.722590257332303	0.0364170487083898
2.829866	1787824726017108224	0.0007185902410852044	-0.0012478835026328338	-0.0013713800810123864	-0.03933256163667333	9.793032775069046	-0.030458226404750953
2.830366	1787824726017108224	0.0010294936997588171	-0.0003821549992337786	0.00012418013975311736	0.05996247089524329	9.717154009948525	0.009561795377010157
2.835166	1787824726023108352	7.350146419354006e-05	0.0020484597468547576	0.0022777194727330234	0.03249695650377246	9.729714716573717	0.0594054517765229
2.844462	1787824726032108288	-0.0014365890812936379	0.0019358313048926494	-0.0019455295600325027	0.06599605361905224	9.77652689403023	-0.0026606037504673143
2.848350	1787824726035108096	0.00165982263811108	0.0020203841216807367	0.0015830432785691843	0.011249222335117237	9.786702730646294	0.010971571631297458
2.852691	1787824726041108224	0.0009542865440011274	-0.0013709142336349451	-0.0007099383226434316	-0.07896264334941774	9.850998383996664	0.0015036877290235482
2.858193	1787824726047108096	-0.0014013233881393552	0.00020386092335738357	0.0014668253528292425	0.02963636828093879	9.697134832545103	-0.029542272190661516
2.862319	1787824726050108160	-0.004145167802444438	-0.0025845657147604375	0.002070018824152718	0.06381384511525179	9.797685282369184	0.005914594173032462
2.866556	1787824726056108288	-0.001238437921588749	-0.0035631791003788594	0.0010054837708973732	-0.030026735419846108	9.727256451421802	0.015906866778651517
2.871097	1787824726059108352	-0.00015324634071804926	-0.0034950350630034172	0.000375537195166269	0.001820608946001067	9.777737347304184	-0.014320176277889514
2.879121	1787824726068108288	0.0020793629468305462	0.0005064813869278452	0.000668215162129747	0.022182543741160143	9.7934346087308	-0.12589277127378778
2.881828	1787824726071108096	-0.004262619806069647	-7.851435575863266e-05	-0.000636944922998582	-0.009236784739215048	9.784482120886894	0.038908243900302335
2.885251	1787824726074108160	0.0014176597148806457	0.0013290585948227374	-0.00383283860246876	-0.020468620040841046	9.816544156292093	-0.011194094375245395
2.891416	1787824726080108288	-7.582154223682138e-05	2.5962235249485317e-05	0.0012782615477152995	0.06509591315074237	9.818194789621113	0.0411507268653655
2.895748	1787824726083108096	-0.0013837840687168585	-0.0006006720048685884	-0.0015029418107723777	-0.024738974281903164	9.810437999985865	0.024672461150645274
2.901908	1787824726089108224	0.0019655853566337292	-0.0008208066602814184	-0.0011774269077451443	0.0521506399906616	9.797398614103573	-0.036148677269513894
2.906918	1787824726095108352	0.0010302944035027667	-0.002716479108379061	0.00180304093373462	0.00539019993161605	9.747198474939347	-0.07212167712860534
2.913538	1787824726101108224	0.0015104080673624541	-0.0009382993628520599	0.0023868309860553744	0.05925222247650248	9.702843350561428	0.042507201108411705
2.920332	1787824726107108096	0.0005659584820623545	-0.0002419087253490206	-0.00028130855412065563	-0.03634415122431729	9.799974677599202	-0.009568542490298673
2.920990	1787824726110108160	0.0020656466624677733	-0.0007895618783010591	0.0008604229956116255	0.027367613562354502	9.750810681395297	0.06353270320992774
2.927789	1787824726116108288	-0.0009912355226705048	-0.0004924230724728375	-3.961726750233708e-05	0.004173092310034807	9.730261265750503	0.03221112834915629
2.931620	1787824726119108096	-0.0025670126561045323	0.00016225475162064734	-0.000921346775156711	0.11279015119146106	9.81338528205394	-0.004120662450787568
2.937023	1787824726125108224	-0.0006472762686374768	0.004451768053276988	0.0012422651739263692	0.018978075371022703	9.808371680698649	0.09460337254587615
2.941092	1787824726128108288	0.0019811052265174224	0.0011763015883080679	0.002529299724821005	0.06339352796077508	9.740167194850583	0.05721946038374681
2.950411	1787824726137107968	-0.0002516492191899441	0.0005193066707982561	-0.0004186272585227809	-0.018907586765103353	9.752511322300311	0.0348570149389675
2.952168	1787824726140108032	-0.0019147809762875578	-0.001276691016915514	0.001147930438431102	-0.002074349847714166	9.834687135460914	0.07059893353757549
2.956777	1787824726146108160	-0.0029558871267891815	0.0009196404952271505	0.00185048916028303	0.0014864630913242992	9.795261438632414	-0.031072461276028467
2.959048	1787824726146108160	0.0011710765059662774	-0.00103554231678324	-0.0002532360509980091	0.017837510580725982	9.772815506928392	0.0006893034920195315
2.967537	1787824726155108096	0.0018147480403627836	-0.0005220803535526719	0.0013996930127169818	0.06612899884017875	9.843535964611188	0.0014923051221050823
2.973890	1787824726161108224	-0.0007115120065421301	8.751667666579278e-05	0.0001673124159401017	0.030328285412303965	9.74680019574988	0.03799754936801111
2.977335	1787824726164108288	0.0031136049810786626	0.0012136785314417285	-0.0034319682858197868	0.06209631583162403	9.81319210301955	-0.01207132036369844
2.981130	1787824726170108416	-0.0021561900964966203	0.002281340927731822	0.0013185961670144379	0.007772072170196412	9.811008787331712	0.04211599375139198
2.989825	1787824726179108096	0.0021638370608452694	0.0021244625615784414	0.0026455014053914914	0.04905097929039475	9.691256047606698	-0.06431156620736583
2.990325	1787824726179108096	-0.00019394236749026712	-0.0016996101863268722	-0.0022571012587381803	0.029405761103109454	9.67795199356747	0.013669304513423068
2.998769	1787824726188108288	0.0015938522128581603	0.0009323931571956965	0.0006586219015245093	-0.004519044149367241	9.856750932146555	-0.012001591038213605
3.003613	1787824726191108352	-0.00016752146952857277	-0.001616202940068465	-0.0014907560862414937	0.04410809377923542	9.897032437944265	-0.079892835797277
3.004113	1787824726191108352	0.00267324877715308	-0.0017397439408396724	-0.001905975890367491	-0.03343506385451392	9.783523449886612	0.027180950845487786
3.009132	1787824726197108224	-0.0028787501137116436	-0.0020929161901846907	-0.0005487465133874991	-0.06289352039746172	9.8020248529151	0.018019808676764316
3.017679	1787824726206108160	-0.0003525831202256772	-0.000664059891558909	-0.0019443400413124414	-0.01044983172804934	9.761437550007704	0.004446788608635699
3.023129	1787824726212108032	0.0031395022674999004	0.0007933191108460871	-0.001007704881830274	-0.004088376373067505	9.845224522961239	-0.03662978748908973
3.026519	1787824726215108096	-0.0005524602057215913	-0.0018299234922912705	0.0009254928821112838	0.09149099803589053	9.78234714396765	0.026283030801676162
3.033244	1787824726221108224	0.0009095781525323077	0.0027508552569968448	0.0009292905109299748	0.005301925598103864	9.722205939046741	0.053393090207861454
3.038443	1787824726227108352	-0.004631562846584013	0.0010677959574169474	-0.002441684041526694	0.024799351371751252	9.825324195464118	0.006258958010113693
3.043394	1787824726230108160	0.0006096105944783798	0.002073840188836846	-0.00031979283260503885	-0.035521450858515734	9.758806470502245	0.0655541089068229
3.046903	1787824726236108288	-0.0028894016830186614	-0.0020260768341001426	-0.0010427517900193203	0.008704028153003996	9.778252597856524	0.07654564815783696
3.050839	1787824726239108352	0.002225010780782655	0.0009444906806881136	0.0033199309818865656	0.06315989339394096	9.805279614430914	0.052137613334921236
3.056270	1787824726245108224	0.0024779682647185033	0.0007017420189624108	0.0019722778722313108	0.10837877099884931	9.74807444778048	0.08574667064622934
3.062258	1787824726251108096	-0.00116569703955475	0.00032553404819246796	-0.0007838737593935228	0.10520285237890586	9.901183627219917	0.12063502345583473
3.067664	1787824726257108224	-0.0025545616059159254	0.0005307608832462531	-0.0013680483628144273	-0.10119441363494125	9.794450271363694	0.07193201813105296
3.076197	1787824726263108352	0.002424626970174724	0.0031214115504997328	0.0014833856145191424	0.022579752611341777	9.878598824808938	0.055034566785595866
3.076789	1787824726266108160	0.0001473578253305645	0.002224879533565017	6.044802552680933e-05	-0.0863845747027138	9.74083043085243	-0.0037413438068663527
3.080667	1787824726269108224	-0.0011787569361454298	-0.0005857307532355881	0.0015295903538500924	0.03842655255994072	9.778890387603282	-0.07169817098065587
3.085877	1787824726275108096	0.0016888205197914533	-7.49306309569618e-05	-6.383907442612748e-05	0.07484849874938343	9.819165706560318	-0.03886829071825204
3.095649	1787824726284108288	0.0003029833619000637	-0.00011703740354438051	0.00010052958857565115	0.06246383291972307	9.794740963302765	-0.01841451232798056
3.097970	1787824726287108096	-0.0004232004450744938	0.000738988507194214	-0.0007065665213203826	0.07207437565221791	9.81854862936681	-0.029261924220975274
3.102855	1787824726290108160	-0.0019780368516239457	-0.00252118733298104	-3.2252637943034325e-05	0.011529087981683428	9.764255774859723	-0.0032855948111477767
3.109286	1787824726296108288	0.0005581395170988209	-0.0016708155296696588	-0.0008487756300433557	0.07435025059350955	9.816462856462087	-0.05010830532770735
3.109786	1787824726299108352	-0.0012474522573867777	0.0006505780646694659	0.001812407555317697	0.0481923327666826	9.804889212836917	0.06103773474026366
3.115549	1787824726305108224	-0.0005301016443518924	0.0014393975170549022	0.0014186865797409039	0.02597413411517331	9.750264691301913	0.0749165473089888
3.122648	1787824726311108096	0.0005071536948474404	-0.001438721165371572	0.0007416646611661132	-0.003477866809068076	9.735696493405255	0.03607280737109492
3.129913	1787824726317108224	-0.002011775037687794	0.0011465831754592253	0.0025132213541768783	0.08671820846189718	9.797882604690287	0.01282104492119833
3.133810	1787824726323108096	0.001244845396236699	-0.00024964560325141556	0.0010956256551084883	0.0036620599329737456	9.84676124386279	-0.03849145067885065
3.136621	1787824726326108160	0.000690656896841446	-0.0012839243998975852	-0.0003424269004105883	0.06178551878001891	9.88536327943023	-0.057849435880106895
3.142092	1787824726329108224	-3.103233959651101e-05	0.0005509890157921271	-0.0003469361410036546	-0.049560813309421706	9.760584406962103	0.013350979334128625
3.145438	1787824726332108288	0.0038715724756679085	-0.00047579708043974517	-2.566185712711344e-05	0.078919349002506	9.694866054520586	0.009309041506170321
3.155532	1787824726344108032	0.0028780969238584894	-2.9872188349391627e-05	-0.000797066554960373	0.024954959931636867	9.772170822823034	0.1113846999114503
3.156862	1787824726344108032	-0.0010233337729278944	0.000979776791561034	-0.0001762173908095364	-0.03841008597197877	9.780577716075948	0.10329301681071018
3.160859	1787824726350108160	0.0010555965309092096	-0.0017688736620891225	-0.0016302122414023634	0.00501837207644203	9.775895903709594	0.11310586573752074
3.169657	1787824726359108096	0.0005966525363624366	0.0006076299340310233	-0.00010653758319772701	0.052866966739193964	9.770394660001848	0.04136347685140955
3.172186	1787824726359108096	0.0030361818949178445	6.20980201632654e-05	0.00046415030423021576	-0.00965701013142449	9.808037580303838	0.14227003653572562
3.174596	1787824726362108160	0.0003653425719726392	-0.0010787018877411161	-0.0026951036373595405	0.045652165093381956	9.703842357926355	0.04129414266523855
3.179839	1787824726368108288	0.0013816524193754063	0.0009516100667061483	0.0028006684162368983	-0.0029911622054857347	9.776039814719857	0.02093483331724936
3.188569	1787824726377108224	0.0005855005633260826	0.0033694391475742463	0.001959735439538787	-0.03825316407927805	9.805148168932392	0.06672074045959031
3.195132	1787824726383108096	-0.0004219457110448168	-0.0006106761579877471	-0.0033575768259478823	0.011350900146902768	9.79100209831642	0.020389111703172966
3.196965	1787824726386108160	0.001678527434846045	-0.0019204880560201463	-0.0016048219857859123	0.0011418254117105918	9.817467688763546	0.06101743463996042
3.201249	1787824726389108224	0.0015837281652310285	-0.0006010169267896138	-0.0007992846090663912	0.02130525478035765	9.826075773964401	0.02734638620589764
3.205015	1787824726392108288	0.0019804394149731254	-0.00023945584320806407	0.0009744641197456148	0.01281098458287191	9.805191203951567	0.06552794106406351
3.214299	1787824726401108224	-0.0007558761014084364	0.0011118617034702246	0.00044281306223073225	-0.021818128026654282	9.74286580864858	0.058605292779419324
3.219826	1787824726407108352	0.0011111916741535501	-0.0003790060529908197	-0.0005698000324878512	0.044488299925601826	9.819337359678105	0.0038857516659498038
3.220326	1787824726407108352	0.001985478598973988	-0.0009795236352890203	-0.001570459796056178	0.04237607278845894	9.8237209233572	0.11184429458527596
3.226672	1787824726416108032	0.003542643505635798	-0.0011002891833354288	-0.0008040324777359462	0.042027913616503335	9.81921410325351	0.0737345224653553
3.230755	1787824726419108096	-0.0005818536993815049	-0.0019348263083431157	0.0010932792589162987	-0.024380711328863706	9.725247113399062	0.003812633613044167
3.236822	1787824726425108224	0.0022651420261382577	-0.002081245613617216	-0.0009088097989922379	0.06003655669986791	9.742163889767532	0.036658258864165114
3.242434	1787824726431108352	-0.0007441939910459891	6.523995144590977e-05	-0.00017241743916655516	-0.005227318714998597	9.814081985590386	0.04291701174707944
3.244780	1787824726434108160	-0.0013578698967178955	0.0003340800250651578	-0.0010667863736565956	-0.022511072036337267	9.822563411119887	-0.04414633057456795
3.250783	1787824726440108288	-0.0008772033253353699	-0.0010213507238348513	0.0011125391179417988	0.043223012710875794	9.723474892915503	0.0320787667332523
3.256240	1787824726443108352	0.00041603297703478743	-0.0017354166593984352	-0.00043222373830708325	-0.04232706228157167	9.82290878167928	0.03220766240498639
3.263239	1787824726452108032	0.0006205682159815284	-0.00027708516965025873	0.0010619101627010125	0.005994347718823699	9.80356124845071	0.025460081626935416
3.268750	1787824726458108160	-0.0025456026248490736	0.0026288356094674283	-0.0016188979644401406	-0.004996575042556642	9.825680411478567	-0.014541211543943427
3.271450	1787824726458108160	0.0014077940870715275	-0.0027398878694630123	0.0012776930102875639	0.028966495677377562	9.79505299301712	0.039681360825037884
3.275800	1787824726464108288	-0.00038870674811628713	0.0004224395833319367	0.004087904545429378	0.0740987556045758	9.720227532119887	0.040225420869651224
3.283548	1787824726473108224	0.0007146462837596393	-0.0023090782032333976	0.0019243509543596879	0.06364543950959266	9.692738974668996	-0.005933492935726089
3.286774	1787824726476108288	0.0004218273628252274	0.002637786131341666	0.003047699368501696	0.029471200740613983	9.770485541003044	0.04475152747664678
3.291616	1787824726479108096	0.0016595914896663946	-0.0012024945462367144	0.001113839827639848	0.023064283280879304	9.791945015858806	0.06413076258155417
3.296516	1787824726485108224	-0.0007386086443060721	0.0014249265284934692	-0.0003850503400363849	-0.02562914616973507	9.75582776662211	0.12186580816087468
3.302838	1787824726491108096	0.0017588221562481947	-0.002101626559379155	0.00023486963295938005	0.01693142136454332	9.734246212928653	-0.014736591447542684
3.307335	1787824726494108160	0.0015992756021416185	0.00019473446556954785	-0.0017042915720985963	0.0012211692051978876	9.757778807232516	-0.007633847262391139
3.311972	1787824726500108288	0.00027562471715666893	0.0009740880677229613	-0.0031328718618616304	-0.004978663200000139	9.787234191060326	0.05617808108905803
3.316554	1787824726506108160	0.002572712918377585	0.00036626522513423987	0.0018434778173435614	0.062051247488089926	9.772711371952846	0.05238515031764868
3.321239	1787824726509108224	0.0009820197453394729	0.0008429561528398206	-0.0010639413576255911	-0.013458396904574926	9.814415105804244	-0.04910360131640684
3.326187	1787824726515108096	0.00023568594666839793	-0.0011206612083575235	0.002093225377830871	0.10563991417112328	9.819149008233861	0.015409745256360732
3.330488	1787824726518108160	4.237452958384448e-05	-0.0012736308653279048	-0.0011497562406336448	0.04029831474660689	9.788719345246577	0.03340100334828566
3.335132	1787824726524108288	0.0006899563198365617	-0.0026630128844085704	0.00013477246653421327	-0.031245769435431822	9.870670005943332	0.01863501372750951
3.343193	1787824726530108160	-0.0005690160774329542	0.003770467263043695	-0.00033917990868757825	-0.010893618627160508	9.814193007513069	-0.026313552631299635
3.347675	1787824726536108288	-0.0010493379582696136	-0.0027363283658884117	0.000548376481819976	-0.06503312921752562	9.832023153415987	0.015490269317047526
3.351139	1787824726539108352	-0.0005202131934252292	0.0002653861200003048	0.0006253644535055307	-0.011234448843579041	9.720145067683957	-0.03731074104447577
3.358486	1787824726545108224	-0.0009233706624471738	-0.0013879669039663367	-0.0008101057588569186	-0.038203046258911987	9.803179794193982	0.008365331655704992
3.363732	1787824726551108096	0.0020903963101935948	0.001297034632205881	-0.00036322885319014744	0.04089767942751397	9.774735186424877	0.02136171990165449
3.368219	1787824726557108224	0.00040748660524539865	-0.0029843356865385828	-0.0013111230059010895	0.005238431799113444	9.76245300651448	-0.0416762916409206
3.369880	1787824726557108224	0.0019280394119908866	-0.0021425389593068187	0.0012126863197556162	0.04850212653696499	9.751309026457838	0.056063858726335146
3.379542	1787824726569108224	0.0008783061453332611	-0.001143966470404663	-0.0012564443111465833	0.022724194157420767	9.833345115554915	-0.03754386466275997
3.381161	1787824726569108224	0.0009765530242680057	-0.0007879652156821213	0.00035644095301246855	0.0414834909271314	9.794102830002217	0.02093183972518743
3.383664	1787824726572108288	-3.539411369628567e-05	-0.0018980216416456409	0.0008799898905244455	0.03200092537028452	9.762834192887201	-0.008676473231418552
3.390582	1787824726578108416	0.003487925256006641	0.001197002268028448	0.0008981796247175695	-0.004413307500325498	9.71495845573525	-0.009886946018315735
3.397168	1787824726584108032	-0.0008439851885784063	0.00047118586510985533	0.0011996000404326593	0.07683587219028079	9.772349918939543	0.025633357887090244
3.402960	1787824726590108160	0.000735299666258987	6.1027296032095115e-05	0.001539482922962553	0.05998331536375077	9.753588262471215	0.05622837050781037
3.409564	1787824726599108096	-0.0007937879018527781	-0.0016585902687550802	0.0011161089788027582	-0.03457056502542192	9.839241380712746	-0.06150207917922258
3.412902	1787824726602108160	0.0007628661007165578	0.00047216004313506876	0.0010045385399620691	0.04773901121575748	9.83776884023093	-0.006233499726476955
3.417779	1787824726605108224	-0.001230625365184549	-0.0002614153609263501	-0.0018738839000838092	-0.0024105032080199568	9.779853218793455	0.03607876281678789
3.421568	1787824726611108352	0.002526180164220661	0.0004515485858339181	-0.0007174697845862215	0.0888539446649073	9.811771276859064	0.01672504523755427
3.428161	1787824726617108224	0.00021764011185777728	0.00010713386888951026	-0.0014118843993392144	-0.03796920102287705	9.743145753165729	-0.02225628011176265
3.434895	1787824726623108096	0.001889095876710711	0.002808080110479019	0.0005917037097934628	0.005744197877552712	9.835347414207675	-0.010110791823157914
3.442138	1787824726629108224	6.84815230367045e-05	0.0022239800088191194	0.001198636416028037	0.11232946127983176	9.785569070204934	0.0378556894366565
3.442968	1787824726632108288	4.1693164244124495e-06	-0.00043930604594695304	-8.39563000835784e-05	-0.00322101243925502	9.771150260259166	0.07998393833064209
3.443540	1787824726632108288	-0.0009477069356598044	0.001294545447681882	-0.0030252668308985496	0.0015854018837737037	9.86693744096946	-0.05054390120151046
3.454321	1787824726641108224	0.0008524262341174323	6.546106393112561e-05	0.0007257557335357278	-0.005413934596570604	9.837982850989247	0.0922205450781743
3.458577	1787824726647108352	0.001988054521729864	0.0015859349066231977	-0.0008515004217258469	0.029762868598767044	9.653654658436047	0.01454220400412257
3.461511	1787824726650108160	0.002545549611205604	-0.0002308510191485888	-0.001570888537826822	-0.04474740075954574	9.752044012603593	0.021451200909690396
3.467828	1787824726656108032	0.003583382431929023	0.00073239107864835	0.003127440879158114	0.06653791771782566	9.783116754326171	0.029067111320511006
3.473573	1787824726662108160	-0.0018410359411337178	0.0006177102848543012	0.0001356718403466804	-0.037695231651569315	9.76660067437033	0.050093308731735176
3.478087	1787824726665108224	0.0024011421070896056	0.001593300475326442	-0.0015813252033897007	0.03845593558275584	9.8105922627006	-0.001433953208299362
3.483137	1787824726671108352	-0.00032424454807676773	0.0002855861771252781	-0.001564566578324542	0.05391947063773369	9.699839874247388	0.04671207237909681
3.488076	1787824726677108224	-0.0006970880368294035	-0.0015665931437379018	0.0014234476816552175	-0.0025089437320565955	9.787105838745104	-0.0021806485150073322
3.492705	1787824726680108288	0.00017236072088513618	0.00013604908851036368	0.0013592456376768053	0.0069117343673834215	9.920672802822558	-0.08066766906523198
3.493205	1787824726680108288	0.0006474960141408832	0.001179139822802641	0.0002506480676736044	0.061197196665297944	9.802047037435582	0.05680943832976894
3.503285	1787824726692108032	0.0034703922547384028	0.003187970327393505	0.0015725753438882494	-0.030574181781667993	9.818747414526085	0.025639507855576872
3.508545	1787824726698108160	-0.00029279404897025063	-0.001795743336819637	0.0011477522045629802	-0.030679767929385038	9.772544814445917	0.014316316244296601
3.514572	1787824726704108288	-0.0006006050334425515	-0.00038296291447334485	0.0016079845092511445	0.02856424739118326	9.784273801283332	0.045746289409192196
3.517585	1787824726707108352	0.0016013769994564703	0.00017423974043541496	0.0005963696947054719	0.013736359520363502	9.809643401082958	-0.06271519429554173
3.522771	1787824726710108160	-0.00020413851347511695	0.002701104249154571	-0.0011472448324006523	-0.03174738483102062	9.746593335796693	0.052232168176140036
3.527813	1787824726716108288	-0.0005761748440412606	-0.00041530146387978287	-0.0005154282095341063	-0.01285794110228873	9.76798325221972	0.056126896243501194
3.530348	1787824726719108096	0.0019522421994009104	0.0008883340972954319	0.00045083183660554223	-0.0645098872745675	9.845511039635515	0.028906161691929024
3.536981	1787824726725108224	0.001440617073114202	0.004444818851288575	0.001381501051292848	-0.0015482890782068728	9.723304181622021	0.012556338341383633
3.544087	1787824726731108096	0.0012183360987141074	0.0013870512330712936	0.0045167905005150085	0.0870346707457494	9.711954486527745	0.00027963852986742817
3.545003	1787824726734108160	0.0004135423862281546	-0.0001317735321751011	-0.0006593602225180808	-0.014566654567340666	9.747387125744233	0.015057573137451017
3.548790	1787824726737108224	0.0013757191319697581	0.000999006645937854	-0.0025872814893139365	0.05349781931237096	9.817075857080704	0.0871108845009274
3.555707	1787824726743108352	-0.003059556010331078	0.001621429500529686	-0.000603308105027681	0.008390816854263608	9.777917786945666	0.007022776427057995
3.565093	1787824726752108032	0.000848321108330783	-0.001260636326049899	-0.0009852498304349143	0.011652905891525317	9.812750029045954	-0.0011577173707023741
3.565593	1787824726755108096	0.0014677420402137312	0.0016171466689648799	-0.0019352956780405595	-0.05744578602475968	9.804756735743112	0.03031765879490806
3.572081	1787824726761108224	-2.266329245271795e-05	-0.003600920685640447	0.0001441067420463864	0.08331583655444194	9.767466428364536	0.012036101436637877
3.579094	1787824726767108096	0.0012702587334706818	-0.0004901780507019537	-0.0004394328879578789	0.00880742769067931	9.79140069784402	0.04591766748195994
3.581848	1787824726770108160	-0.001310727878784642	4.8016347986360575e-06	0.001247619410497787	0.054990669656910296	9.737644345299637	0.06032165551179763
3.586971	1787824726776108288	-0.001303932895897884	-0.00025551743393334653	0.0015526707157376511	0.055165121869327545	9.742602899129357	-0.006216298151168035
3.592771	1787824726782108416	0.00241538501008654	0.002059331279638758	0.0009341812502245423	0.04623178446569713	9.688272465325396	0.02407894298217979
3.597703	1787824726785107968	1.1028439891085272e-05	0.0010264144029896393	0.0013289801982576143	0.11046832048374139	9.812280493225657	0.008722693471613766
3.604224	1787824726791108096	0.0006419664309077984	-0.0011945617798801978	-0.0008719033400256062	0.046066732337202654	9.777303452832482	0.04759886290169963
3.608196	1787824726797108224	0.00041549058187610076	-0.0006514369705473235	-0.0016798545824556921	-0.07261833682237796	9.847222639624706	-0.034411927050153154
3.609143	1787824726797108224	4.164424454529849e-05	-0.0019437554601918355	8.722184362443277e-05	0.013837640687745881	9.857045364949007	0.0020258428948803434
3.616100	1787824726803108096	-0.0008009841400929497	-0.0006143131985544715	-0.00121168067320771	0.017603884670943606	9.731335667811463	-0.06311811659891042
3.622583	1787824726812108288	0.0032162672194569605	-0.0008049682025757952	0.0003563562187085975	0.02979557585101203	9.803960060844785	-0.07449719352511185
3.628008	1787824726815108352	0.001172902124105163	-0.0012877202924636425	-0.001235402285721712	0.059100172702270075	9.77118203529705	0.05301529823636184
3.631878	1787824726821108224	-0.0009614081216635067	-0.0006729015286941428	-0.0010624461496669773	0.030153618598073167	9.826430702351873	0.015479686064938382
3.637869	1787824726827108096	0.00032499489878882527	0.0009658855640180797	0.0023036990125785096	-0.046965764231798796	9.715981582608919	0.053149634690920294
3.639222	1787824726827108096	0.000456293814975006	0.0008980920526453443	0.00043062264489051867	0.02136395523045525	9.785280174207905	0.020571625481483523
3.646795	1787824726836108288	0.0021912498368029743	0.001187023462999249	-0.0009552073954364248	0.04228721881675944	9.807044616679923	0.044753234808351035
3.650757	1787824726839108352	-0.0012290480694970372	-0.002587233296522029	-0.0009510779269884655	0.1322312961971222	9.71298108059749	-0.006861222530831327
3.659900	1787824726848108288	-0.0006082065888459676	-0.0026449411568234904	-0.0008831653276253498	0.02379834712516171	9.733140719431528	-0.023088800958590443
3.665170	1787824726854108160	-0.0006421442850378924	0.0014283778068748714	0.0012454561559552479	0.05038231053299297	9.778501332536857	0.0044274272375281806
3.665677	1787824726854108160	0.001297458287653051	0.002849759963384481	0.0014866524566068875	0.020012977835890747	9.774904065300689	-0.032363050747291844
3.673591	1787824726863108096	0.0006342119766516435	-0.0008589949989435449	0.002428938980436656	0.0003491749430566578	9.7157513421857	-0.01723763823407997
3.677376	1787824726866108160	-8.163541224826466e-05	0.0008902908519860405	-0.003338272916869705	0.06723376099410332	9.767837152687399	0.0023287927557311423
3.682892	1787824726872108288	0.0006389833769392532	0.00022087994068086466	-0.0006251184655110938	-0.03900548211184068	9.789725982283986	-0.03993835607501281
3.688899	1787824726878108160	-0.0009732776301556627	0.0008781376382417259	0.001656551841471138	0.07679896800876496	9.731362144277739	0.023368356121676453
3.692368	1787824726881108224	-0.001294515638500666	-0.00029153704403527426	-0.003237584230895958	-0.007501885422463907	9.733319833269942	-0.039615010910241145
3.698003	1787824726887108096	-0.00033085270949345576	-0.0009642015697837365	0.004029152945841941	0.0419611714383059	9.755460451692944	0.0395723751250454
3.701002	1787824726890108160	0.0012436833596929974	0.0005272774272961523	0.00019710598469582495	0.1230364216012382	9.75163165192218	0.0006418442496549069
3.708123	1787824726896108032	-0.0023660232512555694	-0.0007407347170324608	0.0010057030943450473	0.060161413732815854	9.73334782944781	-0.029749167807968505
3.711958	1787824726899108096	-0.0019618720460950257	0.0006372637792451676	-0.00022506131258752298	0.04318171232441363	9.838304657809065	0.026727929358182804
3.716477	1787824726905108224	-0.0027197501928331873	0.004867360805808554	-0.0011836022870880091	0.08756363374918925	9.802604817912398	0.061349945629587316
3.724169	1787824726911108352	0.002308496533397839	0.001083468589513879	0.0010360832586405438	0.06899567498241199	9.794226152057101	0.03825899260151673
3.728601	1787824726917108224	-0.00028838860319502685	-0.0012973780653654028	0.0023121725795556413	0.04019875949894454	9.842389453489067	0.03568480330650599
3.731582	1787824726920108288	-0.00336242997035377	0.0008786620920303279	-0.0016569998831192539	0.06840031430947346	9.77381361502781	-0.013462089875187596
3.737963	1787824726926108160	-0.0016841594977727032	-0.002116930458543591	0.0008115196748356724	0.035557686968705204	9.840405655883236	-0.014984098574989328
3.741422	1787824726929108224	-0.0025862110124011154	0.0011135445325425057	-0.0012557673142548902	0.027742043044438475	9.758209008909486	0.07091670973569958
3.746403	1787824726935108096	0.000335766493647083	0.003401662406150667	-0.001384113626056304	0.045096649002092426	9.70600078449582	-0.019183238320734708
3.751739	1787824726941108224	0.0019345108824142254	-0.0023841959548443737	0.0009579753685812192	0.0014347759360859615	9.763370022754971	0.06019703409435438
3.757740	1787824726947108352	-0.0005464762293513137	-0.002980096918337305	-0.002304802939408008	0.07040757647723939	9.728020791471994	0.0018412394375578057
3.765197	1787824726953108224	-0.0007633597327353618	0.0007189046293352146	0.0005474502538140599	0.06017513897301364	9.817395320503799	0.02985865933332664
3.766452	1787824726953108224	0.0006946031192201095	0.00044041127140093063	-0.0034336589890552045	-0.025646963349806352	9.77174045557526	-0.11385150683634872
3.770303	1787824726959108096	0.0010889267936745736	0.0020920852031390187	0.0005531052638963171	0.01168609641460406	9.773294881196856	0.039801894411263895
3.777779	1787824726965108224	-0.0021880080894785096	-0.0028020758487666687	-0.0010453448629293505	0.0325630110289874	9.784373828470102	-0.03493744281988759
3.782007	1787824726971108096	0.00042290272403989207	0.0002439774136049641	0.0018419493258420817	-0.08591773869571828	9.816959029719017	0.043258049270141555
3.787387	1787824726974108160	0.0020765415998799316	-0.000528239938537527	0.00030337630697473806	-0.005335019672319464	9.819306762237867	0.12632667579525536
3.794518	1787824726983108352	-0.0004687988264054039	-0.001625623967507934	0.002563201950913436	0.0528533591507576	9.71211444351884	-0.03928326485110107
3.800739	1787824726989108224	0.0005242770989410611	-0.000638046884014528	0.0017176696247600193	0.013941408292514829	9.793710822272065	-0.03429612189312634
3.801239	1787824726989108224	0.0004439081982528876	-0.00027214647550572173	-0.00040212170200887943	0.025598501018078475	9.795295618525975	0.057384062883423854
3.806713	1787824726995108096	0.0006749243800533065	0.000696975067563928	0.0018187474273667506	0.01095400294239346	9.83355080253095	0.05431577632035664
3.812655	1787824727001108224	0.0013465189281659702	0.0015070622716164437	0.0001442435820464983	0.03563955294051101	9.793781364198562	0.02659174926399846
3.815884	1787824727004108288	-0.0022754839745785897	0.00026144073114566207	-0.0016969127082697617	-0.056129403302711225	9.814155713877682	0.06706580073238441
3.821966	1787824727010108160	0.0028239466979612694	-0.0016241524954859073	-0.0032515187382350513	-0.027605226805933233	9.718301598264839	0.048279185622804664
3.828999	1787824727016108288	0.0004991662030252576	0.0012071136167878535	0.0005741604552021146	-0.0006881478722962665	9.77365560498119	-0.04425072016507428
3.834086	1787824727022108416	-0.0007334769934966753	0.0015026388937551215	-0.0007983179817923083	-0.0054389636902603955	9.808615166115159	0.0018630462895180295
3.835964	1787824727025108224	-0.00037042126292962453	-0.00020579331559456555	0.0015909921752444486	-0.0066073399674079734	9.738413226184885	0.07780099984141092
3.844785	1787824727034108160	0.0001615239926895888	0.0033509398942523387	-0.00043487391583336044	0.062353424079170064	9.801043384651777	-0.048006179073058555
3.847872	1787824727037108224	2.3526412945106527e-06	0.002645398705893294	0.0014261382480881607	-0.005115450527467719	9.862011138368091	-0.04566614329002672
3.852001	1787824727040108288	0.0006091779457547417	-0.001575528172188316	-0.0022280960444095166	0.0071842885024882164	9.716465862797273	-0.053491600931069236
3.859521	1787824727049108224	-0.003900593107962014	0.0008764543863658525	0.00023782584823620954	0.08988272028251301	9.773648719448916	0.03607900314351105
3.860513	1787824727049108224	0.0018824838502402937	0.0026057068562899462	3.983995323835183e-05	0.038735879982701234	9.797809250114195	0.006426029425294598
3.867802	1787824727055108352	-0.00046960631000504536	-0.0017286906159449985	-0.0023630178366068387	0.02355689024611863	9.69131802559633	0.057288127402204674
