# time_s	timestamp_ns	wx	wy	wz	ax	ay	az
0.000200	1787824723188108288	-0.0016896914170955344	0.0013956440455730505	-0.0024177566337109362	-0.06975372515338944	9.758230517604376	0.0416553179455732
0.008148	1787824723197108224	0.0006107641764587719	-0.0008324326091252248	0.001475359449482394	-0.0758925643539171	9.82617198893476	-0.005793504509176043
0.014298	1787824723203108352	0.0003226068272045714	-0.0016000665858093373	-0.0003638787870335675	-0.09482754754197616	9.805560513777063	0.057385600420211236
0.018460	1787824723206108160	-0.0034942931888372933	-0.00022699604268792192	-0.0022114666808541114	-0.08606074093406675	9.850491046827422	0.047638191578841874
0.024841	1787824723212108032	0.0008073084809736723	0.002710751867302871	0.0010528301526180025	-0.08359926888721803	9.703149510952432	0.0077553895644036554
0.025556	1787824723215108096	0.0019683351741239283	4.410929546783005e-06	0.00030525107710085286	-0.00940727381941546	9.829002719711013	-0.08374451647087265
0.032984	1787824723221108224	-0.0002630339382195806	0.002952542430918687	-9.595593714331297e-05	-0.009852902385898858	9.798700023044299	0.01870994067224259
0.040273	1787824723227108352	0.004237298164090433	-0.0011477198857101011	-0.001816271839913073	-0.0481091304809539	9.758404228811608	-0.03494234659637159
0.043113	1787824723230108160	0.002831342557401579	-0.00010855305834830345	0.0006419001796879355	-0.027012767077258616	9.790775272042467	0.03838441531172625
0.047989	1787824723236108288	0.0011490197550847437	0.0005456349460854548	0.0006246275297501068	-0.05603702737629968	9.829929840571818	-0.006282863312534474
0.050446	1787824723239108352	-0.00015612970803592028	0.002031674993537723	0.0002567211530154691	-0.05323186619018029	9.806348826677837	-0.019159828587578996
0.058814	1787824723248108032	-0.00069839461921778	-0.002468610103091794	-0.002632139708284469	0.028765601223227986	9.801926520033028	-0.01835579495024496
0.062940	1787824723251108096	-0.000401343397409831	0.0005397932136998805	0.0006227671312169016	0.06331469788100139	9.783759387674337	-0.0330347772169423
0.065595	1787824723254108160	-0.000660782677467803	-0.0026977534384153338	0.0031612978861062873	-0.06815846724541108	9.763887691973009	0.0064000800225695225
0.071155	1787824723260108288	-0.0022149625821372434	-0.004801391473009136	-0.0018292194640534582	-0.08080912763858407	9.766897655847494	0.059232075973046645
0.078948	1787824723266108160	-0.006264196003579629	-0.0014214272312752312	-0.00341068028671861	-0.10457115866119682	9.84125567804087	-0.04612895708336585
0.081374	1787824723269108224	0.0002543200532521554	-0.0015240919652021192	0.002251451378461689	-0.03356681423176429	9.730885010370095	-0.0011855684088955456
0.087680	1787824723275108096	-0.001091692884004443	-0.0011839842577658082	-0.0009000007060878115	-0.04696356498820123	9.743875907519042	-0.06924924665205337
0.095618	1787824723284108288	-0.00011678247329079547	-0.003795233527213977	0.0003322486983979446	-0.03379613296827862	9.833662202308824	0.06779679925043054
0.097232	1787824723284108288	0.0005854452398271673	6.706063018663553e-05	0.00014626430094495944	-0.07986557019526112	9.684121781557403	0.06804910272295273
0.102175	1787824723290108160	-0.0027039806491208646	0.00030527571683423583	0.00023659445939046067	-0.07233354649457228	9.810942901247998	0.07688570159073027
0.106285	1787824723293108224	-0.001853315557809236	0.0016320341389950415	0.0016225123293655713	-0.08025148447622088	9.794033726068823	-0.05127765184258895
0.111496	1787824723299108352	0.001450243874178841	-0.0021814149626772626	0.0018332081776850854	-0.019484824698461446	9.752414938472976	0.05204265871296812
0.118051	1787824723305108224	-0.0003994978534752643	0.0015394348520855604	0.00028844077362034877	-0.027589353525236185	9.788390224394991	-0.056528905469880875
0.124755	1787824723314108160	0.0010391368659853244	-0.0013809329723735446	0.005437776404993651	-0.09542383146023659	9.667143932259641	0.04441523292103766
0.129068	1787824723317108224	-0.0006284055045911418	0.0004575104954511242	0.004700803045120726	-0.12336630163488149	9.862643063815216	-0.033775777294842414
0.129568	1787824723317108224	-0.0003957100429834123	0.0033215575773039015	0.0005100760857659096	-0.008980071577825467	9.77686551163843	0.0008239494030103586
0.137963	1787824723326108160	-0.0030346619128772028	-0.0009370910163603568	0.002026659022682893	-0.049062679770401074	9.81351075132756	0.04832488331496471
0.142822	1787824723332108288	-0.0018028091287513458	-9.494722709726913e-05	-0.001032059333248031	-0.090565353210326	9.780107287312697	0.005273991280781673
0.145166	1787824723332108288	-0.0024627655071019776	0.0019003395740683929	0.0025987726054566423	-0.06646566497319463	9.824696677676654	-0.014807315773971975
0.151269	1787824723338108416	0.006221316678165037	0.002534566410263212	0.0018773502893952758	-0.12790824485844157	9.796137871405826	-0.05896897030746112
0.156641	1787824723344108032	-0.0026682642692300446	-0.0013644776574358013	-0.00039855615801684467	0.049190457827437535	9.773248606902921	0.006943305021171079
0.162498	1787824723350108160	-0.0027943927313400516	0.002538338362543527	0.0013912609470012158	-0.10486734038038537	9.802309127873501	0.03408776096039633
0.166951	1787824723356108288	0.0014211449045828657	-0.00162172470519264	-0.0016391491976553354	-0.006779950109732008	9.759375937996747	-0.047813748435509326
0.170661	1787824723359108096	0.0002450569924072763	-0.0009197406897439969	-0.0009294675651089449	-0.04936026476580324	9.86949849512281	-0.07467647675916535
0.175072	1787824723362108160	-0.0013568814934854028	0.0001655562541016298	0.0003128890560857094	-0.059536032051464564	9.791367122353806	0.015476665890241298
0.181723	1787824723371108352	0.0005811309907921451	0.002113305585211673	5.1446965069255326e-05	-0.02892401762656497	9.760432578179774	0.03378394570873957
0.186747	1787824723374108416	4.0140494733098054e-05	0.0013694176177719477	0.0011680353845332184	-0.09177496639138247	9.826490438040263	0.05552940516539431
0.191610	1787824723380108032	0.00019254032798289925	-0.0032621425244810306	-0.0006327736175784616	-0.05245342804876767	9.784370411610533	0.03260608183713623
0.196334	1787824723383108096	0.00040714934541245904	0.0008581048670856243	0.000542027108532569	-0.08930852926610514	9.785925335457144	-0.015804464818662833
0.200378	1787824723389108224	-0.0006004286758174107	0.001043074012686581	0.0032559867422108173	-0.12548815648496842	9.781412805950657	-0.011362282306962682
0.206747	1787824723395108096	-0.0016755553695255332	-0.002159567940722341	0.0020228895289509403	-0.06746220824156213	9.770893507028457	0.033594788965171554
0.213584	1787824723401108224	-0.0005153712309402466	-7.337639912788033e-05	0.00017825853446054875	-0.05221996623299763	9.713423933949697	0.04386283165694384
0.215988	1787824723404108288	0.0037129942267344358	0.0012051171356823184	3.551760553330608e-05	-0.04746842106782086	9.844984602082635	0.008956033368518974
0.223332	1787824723410108160	0.0023605091031260483	0.0017588955182086569	0.004292927001735197	-0.08220369402157768	9.883649197545555	-0.006517215630310758
0.227040	1787824723416108032	-0.0025914957214241206	0.0014130305813136244	0.002339840055348109	-0.049176082081059176	9.763904109183066	0.04712734850757871
0.234528	1787824723422108160	0.0011842796856824944	0.0010911129863791958	-0.0011455695659763902	-0.045330092198071145	9.782390140622221	0.03263325370949488
0.237921	1787824723425108224	0.0008668597900483268	0.0004811857043325183	-0.001420510096402395	-0.01654807552126336	9.671118002805033	-0.018196451798354035
0.241929	1787824723431108352	-0.003410724011150751	-0.0008514278974113429	-0.00019329616831904227	-0.042025351085531765	9.837595094525014	0.007286130968328405
0.246242	1787824723434108160	-0.00014664902020113292	-0.00041046701994324543	-0.00010440910168054594	-0.016062602048459586	9.789239045561285	-0.040235994665255397
0.252827	1787824723440108288	0.0012330479346842735	0.0008328151765165739	0.003144629710684336	-0.03113279775808176	9.797641987429305	0.02647231119623434
0.257646	1787824723446108160	0.0031722033960269614	0.001308794439552118	-0.0012084991068948847	0.02018498264676085	9.782822822954222	0.011543379256660566
0.263326	1787824723452108032	-0.00020395081255424632	-0.0028646487098173026	-0.002651377271873051	-0.029779438616644956	9.738757893873812	0.02607260319410868
0.268855	1787824723458108160	0.0006797160361207425	-0.0009847458805608926	0.0009878955017191737	0.03293872321419001	9.839712023328072	0.024167047454906537
0.271956	1787824723461108224	0.005145451671666633	0.0010488890655394368	0.0003186256626683079	-0.03472691931764518	9.737357053165647	0.06481616965902856
0.279846	1787824723467108352	0.000976542158685869	0.002241498798636631	-0.0016803896820120148	-0.03768614838780985	9.814252616229224	0.03465826841895654
0.282476	1787824723470108160	0.0009088881665662766	-0.00034319737896791087	-0.0027999586388974484	-0.10161732673378712	9.769054249446356	-0.04728641032935707
0.289320	1787824723476108288	-0.00016340910465382022	0.0009192982336200386	-0.001066541609482862	-0.005017487968305083	9.734794744230946	-0.0108425608518526
0.291242	1787824723479108096	0.0021517109484867937	0.0023759337269926863	-0.0010519834105903263	-0.047540938811872754	9.769127399912911	-0.018801895306197493
0.299853	1787824723488108032	-0.0017028057704282368	0.0015761087129595802	-0.002554132942384664	-0.09460571198696294	9.825076897043134	0.08136128235461487
0.302989	1787824723491108096	-0.003288646736964093	-0.0005858495060647785	-0.002853044033373205	-0.08215315664704376	9.739188345279944	-0.021307669680011604
0.304353	1787824723491108096	0.002099507480473784	0.0028064811485224534	-0.0001819855441404942	-0.06196508560931923	9.767312569687617	0.008369006533964003
0.314921	1787824723503108352	0.001914856258558011	-0.0025698743949070266	-2.2215579208464577e-05	-0.018258157664802134	9.852069503982595	-0.0021212070361974235
0.315421	1787824723503108352	-0.0012387440851871882	-0.0001981020005874355	0.0005784265324403748	-0.010580522672194233	9.772932453977324	0.04617296964579955
0.323842	1787824723512108032	-0.00030550501988454884	-0.0002525724361243641	-0.0008177836339744415	-0.1263742848916265	9.722796244636736	0.04980197795856342
0.327661	1787824723515108096	0.001208201877344621	-0.0005216133689739499	-0.001729224863493387	-0.04808644871609581	9.817412602580902	0.023518606786688406
0.331186	1787824723518108160	0.0010291325736930675	0.0037107555862620693	0.001341409045190714	-0.007117981619050397	9.767792469812674	-0.07599083546798215
0.334826	1787824723524108288	-0.0009723197879503573	-0.0013297492487590137	0.0015668569324934066	-0.02065551669263642	9.760860386754384	0.023055157056622654
0.345119	1787824723533108224	-0.0016330610302014179	0.0008744370051383916	0.00033151031563978165	-0.09612726386063378	9.803262698578393	-0.028112417746595578
0.347484	1787824723536108288	0.003882994794798307	0.0025505289822446266	0.00029541561514494333	-0.029236960552525226	9.897909769373918	-0.07635816666046372
0.355811	1787824723545108224	0.0006415377263897329	-0.0019117878005529363	0.0004272014538908155	0.023503162462013442	9.738850469571348	-0.006722931615089647
0.358631	1787824723548108032	-0.0015049164225106302	-0.00016674171842106237	0.003638929554653436	-0.07556685532076372	9.719114800025164	-0.03785275771488495
0.363025	1787824723551108096	-0.00020553403609278013	0.0017264881550979984	-0.002517992902447285	0.014463493942453672	9.81278024662368	0.08086179929260756
0.365054	1787824723554108160	-0.0009546854814797056	0.0015217397062734612	-0.001213074423678936	-0.08869853116732448	9.783699959749093	0.032322180343384035
0.372539	1787824723560108288	0.0011672422341335426	0.004075854416910294	-0.0003081646842761747	-0.03599606486043408	9.771174569116184	-0.05349662522675494
0.379099	1787824723566108160	-0.0005953077611452463	-0.0013868719826920718	-0.0033469245697284765	-0.10412981452905587	9.751076898745605	0.05347301422211411
0.382592	1787824723572108288	-0.0003630738135535885	0.0005509218756576123	0.0014762642013130642	-0.029874226618525616	9.77845708348981	-0.014007914597284604
0.385528	1787824723575108352	-0.0007248233332590603	0.0015929067891824202	-0.0019173984629427205	-0.03293287921385104	9.75477439184771	0.03447384062794033
0.391408	1787824723578108416	-0.0006362088704203569	-0.0009718745289100787	0.0022838311368766338	-0.09482842206763098	9.815400995163602	0.03236538051749566
0.395609	1787824723584108032	0.0009576974138823846	-0.00047209938294881813	-0.0019128874794523548	-0.14052350122406407	9.751189449587415	-0.0065938698285911805
0.406066	1787824723593108224	0.000341932843559787	0.0014696127107556287	0.0014386906354043032	0.0034122922108212883	9.783515913351163	0.00971999018393847
0.407033	1787824723596108288	-0.0001573808266926952	-0.0005007437134208927	0.0005643216255897222	-0.09107859123472428	9.753168186924363	-0.023291767110235832
0.410759	1787824723599108096	-2.06543577500991e-06	0.00011124062639161785	-0.002016422327580809	-0.05722558688103992	9.816086166955902	0.05706546405100949
0.416004	1787824723605108224	0.001302084854260826	-0.0011150732515893959	0.0003520580245660057	-0.01850607955359735	9.866114294123898	-0.06864500793406392
0.420023	1787824723608108288	-0.0003688839153047633	0.0011076675263427419	0.0006980661506857216	-0.007813390657450167	9.836102359306718	0.022551847397278016
0.428122	1787824723617108224	-0.0001552264007770557	-0.0003047690696850842	-0.0018486779728297943	-0.09083180875219003	9.828049678936262	0.0212135417477371
0.435128	1787824723623108096	-0.0016345402930713216	0.0017925284949676602	-0.0017707889702382046	0.06009587966868587	9.793028573889043	-0.022933434269248862
0.437874	1787824723626108160	0.0010783797810719968	0.0003499006586536831	-0.0017256428567683306	-0.13243058035369112	9.798151884357925	0.05124913226435579
0.441458	1787824723629108224	0.0016820394693205629	7.449177300045763e-05	0.0003507209773122915	-0.060195701481727246	9.848661648221414	-0.0011195108151061048
0.446673	1787824723635108352	-0.003620535922329291	-0.002385231668108553	-0.0037150614779402806	-0.009973183587677951	9.751478780864845	-0.015776768964134477
0.452730	1787824723641108224	-0.001010330260418946	0.0018286111796232503	0.0030880849462069588	-0.1136939022857471	9.813211140086667	-0.07442310364769346
0.458179	1787824723647108352	0.002369107952383589	-0.0012619600035357517	-0.0009093259461646786	-0.04649306146171419	9.762172164878658	-0.011430397359522448
0.460242	1787824723647108352	0.0008783107319692581	0.0010684943280310233	0.002864785638207561	-0.08746056261869053	9.79232256056853	0.00557409628178013
0.468177	1787824723656108032	0.000471118123777143	0.0015960873490910782	0.0016076348330936623	0.061131285672864515	9.85676103387077	0.05522576162485817
0.471908	1787824723659108096	0.00045417299477151606	0.0011943296348180333	-0.0002087328415155159	-0.12012619336670913	9.852268505685316	-0.005045754219687695
0.478688	1787824723668108288	-0.0028477625610532574	0.0016640114133645693	0.002896924643393432	-0.010937902122012857	9.819862132227781	-0.0008510081987281835
0.481916	1787824723671108352	-0.0011306221200744252	-0.0010996284185586407	-0.0013885560307115602	-0.04909147663692559	9.752324110321734	0.033105162754635056
0.487927	1787824723677108224	0.0018397028508700057	-0.0021724942208131326	0.0014206775488794278	-0.09088841638402431	9.871730897664374	0.06810678376329345
0.494181	1787824723683108096	0.0005598109814918295	-0.00015370552179718437	-0.0006910363069067805	-0.09593110009657732	9.804404301825459	-0.0646726185445445
0.497125	1787824723686108160	-0.0013612603465933803	0.000547840985101189	0.000526855548979646	-0.02594409065041564	9.771555619611016	0.01793987395091166
0.503489	1787824723692108032	0.002633916463717623	-0.00012291516497030545	-0.0005566700133212392	-0.007571890977547076	9.785277284846286	0.007376607554816995
0.505390	1787824723692108032	-0.0007239967699400875	-0.0006948531586324563	-0.0008651759585261493	-0.15799233969500193	9.740853784865136	-0.03921343713487336
0.514071	1787824723701108224	0.0011667430635976931	-0.001311969795236814	-0.001222285744750653	-0.05756822260575048	9.821123162302259	-0.0017529423802483922
0.519446	1787824723707108352	0.001325565255712571	0.0007969995331046477	-0.0005922449942530746	0.020066250802604817	9.78444077858249	0.04421695256930267
0.520662	1787824723710108160	-0.00043650889092130104	-0.0025399551060074775	-0.0009415317505188635	-0.019662532418666466	9.78201987586239	0.03799568275522755
0.525397	1787824723713108224	0.002408109870261367	0.00018743323329062112	0.0008853460596095001	-0.10157412268064996	9.760981242165697	0.039108836156278776
0.530565	1787824723719108096	4.37005654828268e-05	-6.194436410499469e-05	0.001256981835588474	-0.11201879291865427	9.866809623172943	0.025764083526036822
0.534543	1787824723722108160	-0.0027722734372799722	0.0012785482938437315	0.0023364748815515694	-0.04701600147242335	9.824999236627441	-0.06497069999872555
0.543381	1787824723731108096	-8.811231573853117e-05	0.0006870478958850696	-0.002231315747023496	0.05235548971208612	9.796631396021944	-0.01603543159181816
0.548231	1787824723737108224	-0.000976522623363156	-0.0006024265467571658	0.0014705924039574618	-0.12069603742131318	9.785001921586217	0.013271214680596485
0.552843	1787824723740108288	-0.0017379976164976557	0.0018189787938767976	0.0013150324416419308	-0.11286505005084582	9.821565258822062	0.03086907598192561
0.557596	1787824723746108416	-0.0003894849035549072	-0.0005397005708355242	0.0003347660039414606	-0.12959910275626005	9.783298363918748	0.06083848839347698
0.562308	1787824723749108224	-0.0002971241020405828	-0.00045797313884986815	0.0005453382825945832	0.02837424029683356	9.794636797633233	0.0040722154997109485
0.567730	1787824723755108096	0.0032579482677591366	-0.0008065393715193504	0.0005615363851983749	-0.09610090075580588	9.713276177998154	0.04439753727174966
0.572072	1787824723761108224	0.0010261715175336652	0.001121119532028603	-0.003960618977185599	-0.050169891930752365	9.80397045882167	0.026707495788728212
0.574762	1787824723764108288	-0.003431492551133571	-0.0037174580001902257	-0.0019297917803508058	-0.049554528827354075	9.752913576633091	0.11674695153611202
0.582913	1787824723770108160	0.0015643797280943388	0.0006213686773542747	-0.00036433999607842453	-0.03059335894686291	9.834692440347702	0.05165158572070357
0.588702	1787824723776108288	0.0007958793958004875	-0.00011942390970547222	-0.0008862030429669348	-0.031387331760311867	9.762327511817046	-0.018077261183830483
0.592223	1787824723779108352	0.00251225130429831	-0.0011575447849044946	-0.003915930703864177	-0.06470074223600608	9.666638415138333	0.00947068290359886
0.598514	1787824723788108032	-0.0002512711931611665	0.0029864270262748953	-0.0012797121660009683	-0.06641112389558378	9.705616889988542	-0.015494668700225062
0.600038	1787824723788108032	5.6078572578989255e-05	-0.0007591843177163695	-8.054964429577941e-05	-0.08694502249112579	9.769917972791562	-0.010260206361042728
0.605918	1787824723794108160	-0.0008493529693948324	0.0008477289767107266	-0.0004738965171128952	-0.06083588009612137	9.793340849592255	-0.007099105171034081
0.612714	1787824723800108288	-0.0010012408140676018	0.000264290535157152	-0.002036873338456263	-0.02594777273965052	9.81983977364902	0.013302838036599802
0.616253	1787824723803108096	0.0013859212862132896	-0.0010598503450071758	-0.0006656207375103575	-0.05166957490367828	9.743496230874966	0.02623287017855484
0.620001	1787824723809108224	0.001946805059183261	-0.0002449291104819241	-0.00033309469127464905	-0.030584607378601386	9.7722709349687	0.06398023716991685
0.628380	1787824723815108352	0.001767168658560153	-0.0006098302393905183	-0.0009344032609290058	-0.06022542434101415	9.8004917729104	0.0016633520517142317
0.631564	1787824723821108224	-0.0010063998889082726	-0.0011522399340098252	0.0011809311612322173	-0.0027341286656134	9.782094869945693	-0.041304693952235086
0.636791	1787824723824108032	-0.00019243263573145704	-0.0034389182872422716	-0.0013979697580657837	0.029600254167469364	9.816112908848472	-0.0657580319533924
0.640962	1787824723830108160	0.00022465073877483185	0.001444035457472906	0.0008999325745689914	-0.038952700322751777	9.814394698787384	0.001234431503375679
0.645706	1787824723833108224	-0.0021081561784936273	0.00031411291986299097	7.783720452594275e-05	-0.012382609038059024	9.766523958635274	0.014285544819609468
0.650593	1787824723839108352	-0.0017184373008599521	-0.0008100764096936365	0.0010558515213385119	-0.009922583458764955	9.788155126346233	-0.007025030759112261
0.658146	1787824723845108224	-0.0003479248529340725	-0.002474969238869323	0.002915808631905558	0.04062202301938649	9.775899062780182	0.055717828999933945
0.661878	1787824723851108352	0.0008964928375326792	0.0001478412030791223	-0.0026347059180970795	-0.13114377864475218	9.854559226781223	0.008070342716056299
0.667325	1787824723854108160	0.002095918548262243	-0.0010768976651895973	0.00035488102060490817	-0.05527521793090047	9.759137285051892	-0.0693810113028611
0.672031	1787824723860108032	0.0025084656617528093	0.0008507624922672737	0.0005632482561970843	-0.10205387448795937	9.84278463095976	-0.06441535097411515
0.678517	1787824723866108160	0.0022106994877424584	0.001666872969630822	0.002044730925691568	-0.020837353781067457	9.840417102644427	-0.047578523983109515
0.681048	1787824723869108224	-0.0012673931204801264	-0.0005144213358577594	0.0028608693831668327	-0.02161936108842214	9.790739615821732	-0.0036885470108385093
0.689891	1787824723878108160	0.0014291374950468005	0.0013498644143034168	-0.0005025078083820612	-0.002309314183909325	9.82879791500484	0.00382644660049553
0.692482	1787824723881108224	0.00047316268542196924	-0.0013790000650237579	0.0016163370042632662	-0.10808661864450489	9.73663959723684	0.018469947731157635
0.697275	1787824723884108288	0.002025193635494849	0.0009230608792396645	0.001620683130352203	-0.024761203312513975	9.827761176878688	0.04910823493402098
0.701512	1787824723890108160	0.0002647004002945305	0.0016879751118735692	0.001167316813503716	-0.027941427991413123	9.771859939225326	-0.007698925125797961
0.704707	1787824723893108224	-0.000322362076620686	-0.0006693946498683979	0.0008767383066497019	-0.027260582417491158	9.87123075372346	0.04069394462066245
0.713993	1787824723902108160	-0.0004709988426873981	-0.0010426173953060032	0.00048119852281511586	-0.06584506958933714	9.823190808631276	0.0008069644638568647
0.718558	1787824723908108288	-0.0001732219030385054	0.0005431423518081882	-0.0003565260044697906	-0.10507500836523792	9.731279849361195	-0.05459179927297356
0.722721	1787824723911108352	0.0006757982628706544	0.0026357733153483257	0.00044021062896973975	-0.06240331295174147	9.744964866074616	0.023837102057103886
0.727761	1787824723917108224	0.0019135710727754883	-0.002685666217872782	0.00041800059668266684	-0.11432938752001984	9.793553482001462	-0.05480906596139187
0.731378	1787824723920108288	-0.0009117394952096039	-0.0015801368050861158	0.0017773802705066091	-0.04209637900780637	9.755238825181904	-0.06205999402971414
0.735901	1787824723923108096	-0.0010742623597538587	0.0005596694239819859	0.0017481452068435395	-0.07450539576445135	9.817120640605156	0.0059702450993320616
0.741059	1787824723929108224	0.0030768601890773625	-0.0002886801829553675	0.002675483348296556	-0.036994187163060875	9.716387649747372	-0.012648788572756732
0.749051	1787824723938108160	0.0010553331318097334	0.0012619980412039685	0.0009328389500406145	-0.030724470941018548	9.732192825240608	0.005823946474479557
0.752123	1787824723941108224	-0.0004369313981272906	0.0017430103765990815	-0.00023408053613837876	-0.1027074530489008	9.797796048292	-0.05493408410675332
0.759893	1787824723947108352	-0.0007960748057217634	0.0011376866526345022	-0.0030002443728008436	-0.035651089110762736	9.819738332919703	0.018478048810788558
0.763355	1787824723950108416	-0.002836536145967325	-0.0009435946695965007	0.0013725357571874827	-0.04507977402298513	9.846657300560091	-0.010720323088975366
0.764688	1787824723953108224	-0.0012153028556963661	-0.00031130370536318553	0.00013617001579506935	-0.05411769675675125	9.782995671456288	-0.041436172211904446
0.774449	1787824723962108160	-0.00030023778100140647	-0.002041436563463668	-0.0024397771003922242	0.0003829510650843748	9.782229726930035	0.010831662535834287
0.777014	1787824723965108224	0.0010091013305832013	0.00012838622663741844	0.0004302525311375689	-0.10824557767517545	9.789819662739376	-0.018151997054730706
0.781342	1787824723968108288	0.000333354719728167	0.0004192859486953764	-0.0014732401996933053	-0.05476716367698413	9.74674877853691	0.08686072095759215
0.786990	1787824723974108160	0.0017264333521457786	-0.002723127402972151	-0.0002316993622060574	-0.1158391641519109	9.805481368604436	0.020534901210873296
0.791130	1787824723980108288	0.0027973518378536064	-0.0007008854595637809	0.0001850612818168945	-0.046067526777270135	9.786974050543863	-0.008715665055363683
0.796774	1787824723986108416	-0.0006961496287424765	0.001362857295284314	0.0006718232755226154	-0.06539150557356938	9.792937045524678	0.015641694822524886
0.801536	1787824723989108224	0.0015919706877662923	-0.00041455878674695283	-0.0022436240270586614	-0.04834596511372535	9.675850975053871	-0.02981991104875878
0.810156	1787824723998108160	-0.001546724693466342	-0.0008979942529453316	-0.0011680400387508966	-0.04819800141069392	9.692498736724849	0.009852979730275371
0.814189	1787824724001108224	-0.0019373181357947749	-0.0014952571171586912	0.0003375687710657547	0.0067208434501943234	9.80174156171286	0.050505886823493606
0.819955	1787824724007108096	0.0006875723702756206	0.0006580071312844703	0.002134883551198935	-0.005431247827826814	9.790492194890042	0.013554676803138864
0.824005	1787824724013108224	-0.001944222498409335	-0.0008504821948115665	-0.003833046061916064	-0.09758406824801016	9.82584164174569	0.031826853278496464
0.826563	1787824724016108288	0.0010832604909592164	0.00022024233662847525	0.001195702229592869	-0.023042670095753816	9.749282905366252	-0.009261332813614867
0.835201	1787824724022108416	7.774140169707629e-05	0.0019492769767589005	0.0003631573428067118	0.0100483680853777	9.80621592233205	0.006254623963290321
0.837484	1787824724025108224	0.00043947024557166155	0.0009892935017796714	0.001712839934978412	-0.14998076286868778	9.793898816329927	0.03512306429369332
0.844750	1787824724034108160	-0.00052393891893864	-0.002965833075171267	0.00046249248453859984	-0.030550629741849387	9.911889604544461	0.0518028776640583
0.848047	1787824724037108224	0.0020978754357926263	-0.002063573563451955	0.0013612986680044965	0.054497742323473965	9.821218714569227	0.026078451651052232
0.854539	1787824724043108352	-0.002322646389124571	-0.0016461548654135932	0.00026774939388617803	-0.04238561232460084	9.758367514605846	-0.002473572780026037
0.856172	1787824724043108352	-0.0011072365819501315	-0.0015376175872480725	0.002370741037782193	0.035494232649517225	9.808132615541117	-0.036969930515036456
0.863953	1787824724052108288	4.045180662724843e-05	0.0007314782222214264	0.001276541557680967	-0.032181775785269755	9.80075986780709	-0.005106676250439568
0.866855	1787824724055108352	0.0014275069942588194	-0.0003603514016758921	-0.0017253126179299846	-0.08259257412206789	9.729001216417647	0.032525582681082583
0.870211	1787824724058108160	0.003376147415063371	-0.0011867513646778634	0.0011623662665749392	-0.019824353141978716	9.771324902042641	-0.035797998114549735
0.879073	1787824724067108096	0.004008723184022773	0.0011274236265535341	-0.0009098992191097072	-0.0028835045683674315	9.860432175565627	-0.03530399656243642
0.881024	1787824724070108160	0.0006489643764975541	0.0025367901573768253	0.0015654121467954124	-0.021140833427454354	9.775155134970396	-0.06567628122880914
0.886597	1787824724076108288	0.00151042435213237	0.0008896242777955524	-0.001116962400148926	-0.052470098969443484	9.81754853909565	-0.00607839821696568
0.892044	1787824724079108352	0.0016706638919844528	0.0013217369527279983	0.0008852902473153656	-0.06786288016865408	9.762515604368632	0.009966642767992293
0.896062	1787824724085108224	-0.0001340960424539084	-0.002490709823173293	0.0007822081649423216	-0.08975565095590665	9.754024338556604	0.07429435943973245
0.904165	1787824724091108352	0.0009828106323888927	-0.0047442647958646665	-0.0008329473810051633	-0.015545688824134159	9.822303217416456	-0.05250145746287572
0.907716	1787824724097108224	0.00013530787158707176	-0.0006972776062323081	-0.0011882355284202758	-0.008537492141112442	9.81722432497621	0.09045960325968079
0.909510	1787824724097108224	0.00034983858660351993	-0.00022822662609780407	0.000880509059902869	-0.023525299724457112	9.757590238784545	-0.0012699205529975739
0.916715	1787824724106108160	-0.0019014041515343636	-0.00023109185102754412	0.002758399551856886	-0.018257826900264472	9.76374991463881	0.07171296837648079
0.920696	1787824724109108224	-0.0023054084880797326	0.0014372312679026024	0.0013524992061469785	-0.09992413332778419	9.822058856811037	-0.049349737532612716
0.928752	1787824724118108160	0.0016675482149409106	0.0009308877545474769	-0.0023100039481363634	-0.0594494930093723	9.750220554760693	0.024610813473222713
0.931366	1787824724118108160	0.004639836522896437	-0.0033918687683652466	0.0011127435088343876	-0.07634836578589743	9.706736711794031	0.024679679666563634
0.936694	1787824724124108288	-0.0007617910025191624	0.0003898158568367037	-0.0014754173553381293	-0.05683663620151599	9.753535732802373	0.09411570739417947
0.943631	1787824724133108224	-0.001318472825756261	-0.0020943603854028754	0.0015024578239160567	-0.06554513480061469	9.782217634410852	-0.024210550315704286
0.949312	1787824724136108288	0.001483258345526451	-0.002487016594618356	1.2412014119453368e-05	-0.15063637291000276	9.84217378944113	0.047941191285751396
0.951110	1787824724139108096	-0.004022568787075557	-0.00013303070789758345	-0.0007057931807328627	-0.06814161654464744	9.777946411018709	0.03957710850121915
0.957441	1787824724145108224	-0.0009762495997960398	0.0002556913697588747	-8.029049995530249e-05	0.008511642467521306	9.759062869960951	0.1111957903357743
0.961349	1787824724148108288	0.00220363516746631	-0.0017695440673714455	-0.0005112598980996371	-0.01703329881000574	9.802891474592974	-0.00869145681585565
0.967420	1787824724154108160	0.0005782938284703136	0.0018470706197658215	0.00012550842145241578	-0.022225745952361875	9.83095215992424	0.02263281600607469
0.972824	1787824724160108032	0.0025996328796012705	-0.001952451083714769	-0.0018439251342775918	-0.03378981418340574	9.734452543447352	-0.002967416762133015
0.975245	1787824724163108096	-0.0018167759463365333	-0.002530044751008129	-0.0019459500148724745	-0.051169485422311305	9.74733926532312	0.028997519006562413
0.984470	1787824724172108288	0.0010465152590950757	0.00015029937388840595	0.0009085118784464641	-0.06899061013822018	9.76407942008799	-0.011704076098080902
0.987031	1787824724175108096	-0.0003974775516672754	0.0014610431809325816	0.0019953404889408778	0.009848653198743305	9.725821095466634	0.03466321459421776
0.993972	1787824724181108224	0.00039149686959232715	-0.00050551356564834	-0.00012716408680194267	-0.01697876948347435	9.794049572388385	0.014245165081483345
0.998053	1787824724187108352	0.0014666248571917322	0.0006487981213505616	-0.0018345007438304165	-0.025724158262346173	9.846908023111592	-0.009616783517539518
0.999772	1787824724187108352	-0.0002559035049161315	0.000320298103509802	-0.00023897593411830744	-0.06259443837581495	9.804981533110693	0.008678375949063772
1.008381	1787824724196108032	0.0025228624886360898	0.001194142781540467	0.0016786213163176259	-0.06262865999947671	9.807353094878568	-0.014046897396420756
1.012876	1787824724202108160	0.001220534075497194	0.00010921208510362242	0.0013120168615619438	-0.07574328230319785	9.715381200360586	-0.04274721593053185
1.015454	1787824724202108160	0.0013423005754539111	0.0028657614910497587	0.000390687751622232	-0.08866162149349423	9.864957858009314	-0.04144319245818116
1.023748	1787824724211108096	0.0005214043140624203	0.0010854957058549475	-0.004613371594130914	0.014824781881518999	9.79791829221776	0.05472590015711278
1.028821	1787824724217108224	-0.00016070847945690915	0.0010525990106512876	-0.0003317801572284731	-0.10395732582547818	9.743231945735785	0.062326530062217535
1.034101	1787824724223108352	-0.001146128964703463	-0.00043859317321578425	-0.0008122571491765033	-0.1341635061873302	9.830449862002112	0.023388705293932423
1.035900	1787824724223108352	0.002901186325879186	8.945794468633688e-05	-0.003170102011713715	-0.040338973965184044	9.74329874914789	0.09367268360352783
1.040110	1787824724229107968	0.0012097198531115896	0.001043362461751387	0.0024791314111766486	-0.010568930863536108	9.772839456948324	0.06284649185803842
1.047852	1787824724235108096	5.4526337179097156e-05	0.0007324769080056811	-0.002092368354231719	-0.02692234277079151	9.81795449920866	0.04143981517066003
1.051849	1787824724241108224	0.0004414616598100794	-0.0008451275651443491	7.519506148411694e-05	-0.10295460236252893	9.811292452108175	0.05443143498596089
1.057480	1787824724244108288	-0.0020495799219175247	0.0021353732628229113	5.670605631262638e-05	-0.05665450375486908	9.803546546230105	-0.010830945764333633
1.059363	1787824724247108096	-0.0019379093369951124	0.0005743890130830188	-0.0013615152700411203	-0.06088012497942328	9.775092562504026	-0.008261281956866456
1.065972	1787824724253108224	-0.0007150059143510391	5.93628658391303e-05	0.0012972261610584537	-0.02220578213555431	9.84693132557236	-0.03582484204641792
1.074567	1787824724262108160	0.0015674313098794485	-0.0003432971380196949	0.0010342007532029068	-0.05000726308395845	9.855299531915211	-0.01657913901705083
1.075067	1787824724262108160	-0.002658272693461254	-0.0013974478995391008	0.0006048010959729735	-0.09128480780112475	9.768718712002604	0.04420499933590599
1.080701	1787824724268108032	0.0005356343228247644	0.0008284147571568201	0.00221548990610479	-0.015618361831446853	9.858111316860194	0.07056306396350093
1.087920	1787824724277108224	0.002522206925575838	-0.0005024240265794346	-0.0011618950906187085	-0.002063215473415557	9.80501040711057	0.02378691110235258
1.091553	1787824724280108288	0.0014890296216807128	0.0012458827738822693	-0.0015648605481983363	-0.040924318342902985	9.79000159301436	0.030487045996802267
1.096315	1787824724283108352	-0.00022411018115521113	-0.000623928418661869	-0.0003249081143828025	-0.05341937127049612	9.772274988307329	0.008081125324182111
1.104785	1787824724292108288	-0.00031850517127001083	-0.0034257297045443085	0.001223124546464929	-0.05400185318444784	9.811928357035896	-0.08364718006542285
1.105604	1787824724295108352	-0.0007696429962067772	0.0024525747933214015	0.0003060618728656038	-0.03374262230938992	9.874865182138514	0.05776324664880699
1.111828	1787824724301108224	0.001858619112695627	-0.0011059981968724597	0.0020528989675867694	-0.04570035033339078	9.753740054750802	-0.02889606853982612
1.117726	1787824724307108096	-0.0016272301622918088	0.0012255791876973298	0.001376903251348104	-0.11464525814960339	9.763951578408017	0.0055368039377153505
1.120973	1787824724310108160	0.0015707007330201534	0.0007684807210270837	0.0007995364828344751	0.02286185278629687	9.797897041801898	0.025306358331277264
1.127307	1787824724316108288	-0.0002885434330387912	-0.0013057124077805946	-0.0010863150373719044	-0.03394722487217013	9.739009434585839	0.05615286869556597
1.129470	1787824724316108288	0.0003697817909364374	-2.5273629808638523e-05	0.00014434385032539244	-0.009781180349834204	9.800853043072202	-0.03179758942317508
1.136837	1787824724325108224	0.0003539520255923601	0.00024590892708799196	-0.0011641988685449855	-0.06133093032836075	9.754997060348726	-0.0336823475610717
1.142373	1787824724331108096	0.0025032577950281415	-0.001673240544141621	0.000757389514698367	-0.12968462823411367	9.72977443259999	0.07218356232633702
1.146611	1787824724334108160	-0.00033227425991301355	-0.0006831148158613476	0.0030223044772167583	-0.0274014333351824	9.787472563873811	0.012297600422913847
1.150712	1787824724340108032	-0.0005622080882934181	-0.0027046343451559273	-0.0005507732237080434	-0.010238880806437825	9.86178972913223	-0.055473793903915256
1.157551	1787824724346108160	0.0032724972448854722	0.0016556306060098002	-0.0024002788693669526	-0.12239070604123878	9.791285485742486	0.0193227791626061
1.161505	1787824724349108224	-0.001524468580940515	-0.000724779408011499	-0.0010261876810795535	-0.048394954863093226	9.787736181410812	-0.03123781172830413
1.170268	1787824724358108160	0.00235158025321773	-0.0012598334739141654	-0.00021464793924971446	-0.019542452453246602	9.779513959258768	0.06826741622424434
1.171453	1787824724358108160	-0.0003883703031441733	-0.0016451057537469897	-0.00031383495843630567	-0.06720547080061852	9.736712172136905	-0.03522779476125289
1.176775	1787824724364108288	0.000363075586447517	-0.0010732834349923505	-2.3534065163988136e-05	-0.10346205005948839	9.80330831219952	0.05635028416531922
1.186741	1787824724376108288	0.00010358245225128792	0.0006920305251173123	0.0007968775388442539	-0.0972368178656655	9.786747544775242	0.004123822886699651
1.188362	1787824724376108288	-0.0033194649882785357	-0.0022317905613519545	0.0031291160260212042	-0.08376575488435672	9.730300693959931	0.08022398716769519
1.191474	1787824724379108096	-0.0015227982593827589	0.001201583780332343	0.002160981238378243	-0.08507042353400092	9.78850048033604	0.0003701576842308086
1.195881	1787824724385108224	0.0014489436490380055	-0.001408258083058809	0.0005526272522761362	-0.03175192366749529	9.739550212933006	-0.07285790530605893
1.203877	1787824724391108352	-0.0015129890674752452	-0.0021170758813949322	0.0015740429751963678	-0.014097835615003405	9.708334156993981	0.09364894701538708
1.207588	1787824724397108224	-0.0014328159799663009	0.0029694909903813507	-0.0007711497725650726	-0.06186716706822189	9.81749386591074	-0.0280440131114768
1.211470	1787824724400108032	-0.0003060924889651992	-0.0026542348630546695	0.0012218563131538237	-0.06934472562369522	9.833511677334638	-0.0022072607909092695
1.218182	1787824724406108160	0.0003107816019723973	0.00026543557073104766	0.001064295550486017	-0.02983808716147298	9.818917899590259	0.058680685753414924
1.221953	1787824724409108224	-0.0014905938639531633	-0.0012663210032478251	-0.0006053840549119273	0.035892791228623204	9.790095161391163	0.023639338205655266
1.227897	1787824724415108096	0.0004839963555161333	0.0026297958008213787	-0.00399950113521488	-0.03815000284942903	9.728249299125675	0.026254563086006627
1.232907	1787824724421108224	0.0012764750717097467	0.0005025274492783259	0.00200496104666194	-0.14165872183849001	9.826688819830931	0.037706183382029704
1.238469	1787824724427108352	0.0011094481099271872	-0.0019864911203774393	-0.0001241823874332512	0.029739236809269314	9.826844611919052	-0.05311789388137059
1.241102	1787824724430108416	-0.00018106296327533597	-0.00021496203582639352	0.0009618549756884899	-0.15507240397469996	9.744548769126716	0.011622724719197342
1.246135	1787824724433107968	-0.0022517680606796175	-0.0017036283802431239	0.0019380094802698557	-0.026420407486380353	9.842408944720798	0.02734780406346778
1.252820	1787824724442108160	-0.0002493362751286508	-6.490877222282026e-05	0.0014992836561564273	-0.03923237424198499	9.775488377822002	0.02382609695013405
1.258165	1787824724445108224	-0.001379653800903326	0.00043102259348967123	-0.0020911411002496575	0.0052778495712868245	9.801689817205208	-0.06858880426427336
1.264461	1787824724451108096	6.705966765306595e-05	0.0013231320282900937	0.0008582599573310453	-0.008366813582214784	9.760043950885805	0.044119518067183755
1.268172	1787824724457108224	-0.0007835872935484462	-0.00046783951252989765	0.0006637472608158034	-0.029411546533871985	9.80783924566988	0.0777318869296948
1.273296	1787824724460108288	-0.0004355066164325198	0.0006319344681933712	0.00045437063729548754	-0.07236037244126262	9.736966463705206	0.010848472532266012
1.277338	1787824724466108416	0.003426464291277318	0.0018689601741228039	-0.0007574905086686013	-0.1088711585817799	9.771543560569432	-0.03723204402369191
1.282219	1787824724469108224	-0.0012020670914149978	-0.0010156663624159145	-0.0008189618835010312	-0.05303310015692568	9.80762639445912	0.07952382827030358
1.290090	1787824724478108160	0.0007566659733094931	0.0022878989578122176	-0.0009857818175812725	-0.11535281673095571	9.888834642664863	-0.006755240015804263
1.291646	1787824724481108224	0.000635519135109414	0.00025028102874553984	-2.5293469070314837e-05	-0.06349122246191595	9.841347001935102	0.03751168740771388
1.298347	1787824724487108352	-0.000407251875294975	-0.0015530219144981592	0.0009344031499204797	0.020014359676300157	9.759758850287033	0.030732273614883888
1.303152	1787824724490108160	-0.002574813518576569	-0.0020989111685954373	0.001241003474947405	-0.09105200737798907	9.823671011989653	0.0685736462859218
1.307595	1787824724496108288	-0.0007441943248641779	-0.0028941938456176026	0.0034588093426108097	-0.015412502466472557	9.837080155725799	0.0656212033757621
1.312610	1787824724502108160	6.275617946850225e-05	-0.0017254704588860613	-0.0005622216983827696	-0.01697736060586382	9.806857424742713	0.027993999133236802
1.313480	1787824724502108160	-0.002102051594831274	-0.0008884515085966096	-0.0019300356608025425	-0.017565390488198288	9.791810123664822	0.017935251476308423
1.319764	1787824724508108032	-0.0009499684235175573	-0.0013972091986363805	0.002001599323036719	-0.09063930617598978	9.694551620182397	0.0003342691948929194
1.328876	1787824724517108224	-0.002261742001820645	0.0018729141703835368	-0.0009175510280536496	-0.10597477588609183	9.825687828658392	0.01743975283902551
1.330333	1787824724517108224	0.0012565726328082215	-0.0009048684018334501	-0.0009622617717754887	-0.06450866119523425	9.795182720245357	0.04986269838554639
1.334983	1787824724523108352	0.001970848063374551	0.001516024875056495	-0.0010542065145075468	-0.07312847893465294	9.826183609746197	0.019811878237020686
1.342845	1787824724532108288	-0.0010274200379462345	-0.0010003958845525272	0.0001648482343004785	-0.005111175352173369	9.755527902494013	0.0007754238743958603
1.347211	1787824724535108096	-6.506199152967258e-05	-0.00041660649532422893	0.00042691771731251225	0.016381465018191536	9.726692532711214	0.05823495949866406
1.351046	1787824724538108160	0.0008222713672879366	-0.0017347205704825901	-0.0005028327858485707	-0.09236024971846901	9.817771668631128	0.05035409156508295
1.358820	1787824724547108096	-5.423944004830122e-07	0.0012124920417691711	-0.001112547068599316	-0.038105465810681284	9.736383871476768	-0.0019522735672923668
1.365980	1787824724553108224	0.0009001869392783072	-0.0003784111849856365	0.002884048542247383	-0.08061789513901563	9.749218410920376	0.03831419715313277
1.366480	1787824724553108224	-0.0001218892748638122	-0.0008231180661461361	-0.0007441355455390759	-0.08578145589359559	9.804386588460579	-0.00012770041910243474
1.370996	1787824724559108352	0.0009964214292948414	0.0014718003519911395	0.0014391961794973	-0.07510208206457515	9.792183598423549	-0.06386991009965999
1.376828	1787824724565108224	0.0009594886214389515	0.0001373486967221387	2.1956900212398614e-05	-0.03863499362693733	9.767175102548025	-0.09391450373989935
1.382729	1787824724571108096	-0.0024843262764379075	0.0022816896095942665	-0.001485339931635991	-0.07649244101976313	9.774885471335246	0.00612083082798359
1.388901	1787824724577108224	0.0015255806813723766	-0.0019316912167331307	-0.00295758168570428	-0.06846203636324552	9.770075408134277	0.02426489044563184
1.391923	1787824724580108288	0.0001443414890962277	-0.002205173181841438	-0.0018204444502311022	0.009768326924013991	9.747350283655834	-0.008497110761237384
1.397822	1787824724586108160	7.072816354900328e-05	-0.0008846837508802237	-0.0005452475301291683	-0.012963612826385841	9.752182493417076	-0.013253306625228226
1.404477	1787824724592108288	0.00048657389410215057	0.0016596108297621925	0.0007384779078713517	-0.03262787482231695	9.863154475859766	0.014269742654443623
1.408552	1787824724598108416	0.0006039352356769482	-0.0012657463859760258	0.0001282059301926469	-0.007829580730859688	9.757206798883146	-0.006859510798482803
1.411702	1787824724601108224	0.001109328740886397	-0.0012077866667766658	-0.001974716143170508	-0.06651212585131705	9.770783313314768	0.03247967325060587
1.418755	1787824724607108096	-0.0013723001322200551	-0.0004995634922316421	0.0016337758081787972	-0.01876879395632141	9.780788800710855	0.008571886172397639
1.424423	1787824724613108224	-0.0007634147654781359	-0.00015000287084594287	0.0011633255880987594	-0.05585204511464115	9.797555949393924	0.029119226742506332
1.426327	1787824724613108224	-0.0031555792674484054	-0.0003331338952351508	0.0006099119966219522	0.0009668853274693648	9.753766778221776	0.030068967188273163
1.431292	1787824724619108096	-0.004347407797114637	0.0021125162260887216	0.0009557386409481485	-0.022610217583316376	9.74818637143888	0.08558332905968477
1.437014	1787824724625108224	-0.0014019626084758536	-0.0005347873322598438	-0.0009964972527899479	-0.07646030071888077	9.838943267445305	-0.01976474969052186
1.442545	1787824724631108352	-0.0010893927852773677	0.0017053529498893976	0.0026926371247393012	-0.044522190459072575	9.767434354820324	0.04284354268076088
1.450211	1787824724637107968	0.0025814630009355056	-0.000662665603842933	-0.0004768918926493216	-0.12467729491532943	9.834167906575324	0.015076694012398376
1.452832	1787824724640108032	0.0017451520334243278	0.000802561523263678	-0.0015908577286547054	-0.1118483566324544	9.797250984088278	0.04569319943341131
1.455894	1787824724643108096	-0.0013619775413340784	-0.0006440631296874372	-0.0013553257591865549	-0.09647847836072608	9.732869272383494	0.018640266260899086
1.461495	1787824724649108224	-0.0005921159384896427	0.00017575651710047589	-0.00023050536962696867	-0.05768808331591738	9.813485444098516	-0.06720378933193427
1.466978	1787824724655108096	-8.688898996336062e-05	-0.0019017081033066837	0.0013291529818054535	-0.05424828762064404	9.72062898062274	-0.03122373636704906
1.471846	1787824724661108224	0.0020476603790458917	0.0028425352680154273	-6.830782203795424e-05	0.03145510120347541	9.74729309426816	0.038072074304524195
1.475174	1787824724664108288	-0.0021424271094987153	0.0004861479545378904	0.00102633768548078	-0.12128086625185025	9.800117929041877	0.03818577722611814
1.482173	1787824724670108416	0.0014885179129314134	-0.0010735627140931836	0.0016324445485385052	-0.03274467243419661	9.74920591722804	0.027327283641388134
1.488505	1787824724676108032	0.0013610867198894973	0.0018385338165279887	-0.0014862697478296842	-0.06253931791271602	9.768102969399912	0.06638572708470197
1.494776	1787824724682108160	0.0008584715453833178	-0.0014952398234135977	-0.0019017285287786637	-0.007731710257396961	9.83502612364697	-0.03753703942810827
1.497891	1787824724685108224	-0.0034529249566097584	-0.001218575929723661	0.0010082705103659896	-0.03524776500053833	9.808134448012229	0.019624835261485788
1.500256	1787824724688108288	-0.0004281681797512473	0.00029956856917995014	0.00519741062683906	-0.06371656449849455	9.770572719973083	0.055569585841942964
1.507844	1787824724697108224	-0.000956552351785333	0.0007808930335614259	-0.0028873055665095313	-0.013704173376037992	9.756191268321933	0.07119969106394194
1.512375	1787824724700108288	-0.0003232068237259514	-0.00017612977068160888	0.0007560117600332501	-0.08708545688032517	9.793653306709393	-0.04131157207500967
1.518546	1787824724706108160	-0.002577596357025751	0.0018504495017205626	0.0007962827787831106	-0.02082885928921034	9.798233284268772	-0.045124903990373624
1.524748	1787824724712108032	-0.0008164730411913372	-0.0004974209427300416	0.0006333993521343372	-0.05885395049375862	9.744390146415025	0.05098809663939835
1.527782	1787824724715108096	0.0007433132086222895	-0.0004771608749574486	-0.002351643325629441	0.08996803410963489	9.774627958554497	0.018105398513357764
1.533089	1787824724721108224	-0.0005212707871838537	-0.0007562115065430645	0.0005513568810759713	-0.02625201828422427	9.773720533905767	-0.0043067826091913695
1.537439	1787824724724108288	-0.0015031498932176585	-3.918670404567743e-05	0.0009958159905682914	0.0215307305172801	9.815185024954015	-0.08173617759272511
1.543307	1787824724730108160	0.0009255468934406507	0.0009939787928471512	-0.0008226105513743876	-0.06866504949293781	9.80075476284313	0.002443627637040908
1.548419	1787824724736108288	-0.0002090264671192915	0.00017617216166013866	0.0012167578601871324	0.005360146110933391	9.759571400169857	-0.02870027335744888
1.553645	1787824724742108160	0.0027387686257882376	0.002882939091348462	-0.0036886120187635918	-0.07521493553950821	9.748758617229273	0.0011647274945580325
1.559034	1787824724748108032	0.0010494512743222048	-0.0001672452962673459	-0.00043798718465738333	-0.063475679957729	9.787547959369212	-0.022346359731427408
1.563556	1787824724751108096	-0.000583591117458903	0.00022710099928674536	0.0003072467538671447	-0.01621485851087337	9.784198450934575	0.026775842132847325
1.567516	1787824724757108224	-0.0006078221377363902	0.0004182191150204386	0.0016568190566865783	-0.09861866714147252	9.78481492258601	-0.03686507618932661
1.574290	1787824724763108352	-0.002206547739615342	0.0013246747157554962	0.0007140236051922118	-0.06572284779633944	9.7801381021359	0.024135907351169387
1.577502	1787824724766108160	-0.00016864736453585415	0.0008763931229206169	0.002902481961319053	-0.08586726419325622	9.757034724807015	-0.0005105902569279581
1.585338	1787824724772108288	-0.00040001490542109066	-0.000562093951293216	-0.0016521950748476792	-0.03127092094946405	9.757213231474388	0.0891257037552946
1.587522	1787824724775108096	0.00019484669428590376	0.001839951799260277	-0.0022391719658772535	0.04554751195387698	9.801898122569867	-0.030965304891914944
1.592627	1787824724781108224	-0.0015373222219882477	0.0006462379939209828	-2.2704498470110127e-05	-0.01353898550902536	9.78381343985675	-0.006185191207434746
1.596670	1787824724784108288	0.001461105631451358	-0.0022303191531231697	-0.001591724364161091	-0.016912177682445247	9.801515548294088	0.06161600649037985
1.601959	1787824724790108160	7.697014266174071e-05	0.0016763676759873481	0.0001908036047626394	-0.007426699753419731	9.794729426866617	-0.003965062998139972
1.606898	1787824724796108288	-0.0011482213837152278	-0.0005114742413580926	0.0002491227229170742	-0.0974666796264059	9.750027670569471	-0.06569071333378855
1.611339	1787824724799108352	0.0018414273079859413	-0.0004727088099591644	-0.00017749861904465094	-0.06812565380254647	9.764073836245085	0.02844888471361944
1.617208	1787824724805108224	0.0006178989727498714	0.0017020228544208302	0.002065805814128801	-0.09667905939936226	9.767077980782105	0.08408859012895532
1.621727	1787824724811108096	-0.00196218428901402	0.0028356871976033815	-0.0017421172931410356	-0.022769847487702687	9.804050871725364	-0.10529363991892211
1.628122	1787824724817108224	0.003420131105258202	0.00016925047351836294	-0.0010236305466634304	-0.020966006152934036	9.754972654448647	-0.01568966428435932
1.633862	1787824724823108096	0.001288946442034482	-0.00203055915002176	0.001565165376489183	-0.04800315349791602	9.835469424411267	-0.002575370665474289
1.635768	1787824724823108096	0.0012942470053749781	0.001511078307732339	0.0027416421632606557	-0.10409670221405402	9.808814205020713	0.06733938282945509
1.642713	1787824724832108288	-0.002014657106114118	-3.8644159752680815e-05	0.0007902371571653727	-0.07923054254952316	9.72810016575502	0.05221707936401711
1.649739	1787824724838108416	0.001997093339232754	0.0016421398484963786	-0.0009331996600071764	-0.09858028932027324	9.74199877826951	-0.04921497037794446
1.652348	1787824724841108224	-8.788312210410771e-05	-0.0009153211598294209	0.0010031726959656118	-0.036743054162066635	9.748925718510785	-0.07350841844583283
1.654141	1787824724841108224	-0.0001156271942237901	0.001929594095112216	-0.0027529345596959374	-0.09639421145925645	9.846492887642253	0.04200227319770874
1.662640	1787824724850108160	4.816827764777335e-05	-0.0033534541996111233	-0.001598117508309469	-0.01759224904744775	9.7907453129265	0.005154597488450689
1.665638	1787824724853108224	-2.3194424290775957e-05	0.001514962993220524	-0.00018354588382044006	0.02167734083021209	9.799725393779598	0.050906396143373854
1.670843	1787824724859108096	-0.0013483566022960347	0.0024092144283583443	0.0012799177486279383	-0.07053418182532464	9.78796623103194	0.03775116506390909
1.677030	1787824724865108224	-0.0012391550973954624	-0.00044057376047062683	0.0014131911615566017	-0.020906629620402538	9.809796992606433	0.051158058966201625
1.679714	1787824724868108288	-9.42266459369432e-05	0.0027917046467694703	0.002097868447736815	-0.015598294792894492	9.73496553783593	0.027193509479911556
1.687845	1787824724877108224	0.0009530709636755159	8.395409628704587e-05	0.0007835218693091986	-0.05991139623022387	9.795838571922436	0.03787084883909673
1.693763	1787824724883108096	-0.0013220613878009572	0.003915925547589379	-0.001292952576205425	-0.09569396188722717	9.716886809997849	0.007536760764941901
1.696682	1787824724886108160	0.004078857602805408	-0.0028016522394050058	0.0014929789778981568	-0.02301436512453598	9.823960542459599	-0.012293108165057288
1.703502	1787824724892108288	-0.0013472398005827289	-0.0009222973180094399	-0.0006112650983252323	-0.033929243620993525	9.784755888496782	-0.012830446315082785
1.705031	1787824724892108288	0.0022408967868946168	5.31567514505214e-05	-0.0014639443989543986	0.03588117038468413	9.797408415843385	0.018041819132721952
1.715859	1787824724904108288	0.0016339365897652617	0.00047849675651929374	0.0008711683150327536	-0.07862392164607454	9.801974689282545	0.010232989630193026
1.716359	1787824724904108288	0.001745582566029833	-0.0002563489491574779	-0.00039597847872368017	-0.020664689198573283	9.841105169624322	0.0619701570977112
1.724903	1787824724913108224	-0.0006640296358267249	0.0006252872942333999	0.0011227819453560463	0.001754452790349234	9.729478498225532	0.021535877632560197
1.729507	1787824724919108096	0.0009432427833657029	-0.00046588755081483966	-0.0007062409006701713	-0.13872036680928307	9.845681166618055	0.08575961845575387
1.732595	1787824724922108160	0.0019321094691474566	-0.00018022098521018511	0.0010133075685196827	-0.08309008454780747	9.833822579568793	-0.02642790955448683
1.736343	1787824724925108224	0.0022106398406055725	0.0011150546602761355	-0.0013093456891881182	-0.004615518539697661	9.762173071654894	0.012087218347922462
1.742409	1787824724931108352	-0.00035705688839905134	-0.0018705117538169258	-0.0008304357098628709	-0.10589475314990207	9.84629220458182	0.017838899714006227
1.747121	1787824724934108160	0.001756665873753524	3.4670458342690026e-05	0.0021393413078610746	-0.07406915834892366	9.826132990439918	0.029714239762732228
1.747775	1787824724937108224	0.0011845815860252059	-0.0017861977609505424	0.0003077139546884343	-0.03748260560576922	9.80428507819616	0.07371065675581874
1.757574	1787824724946108160	-0.00046385639090204187	-0.0010379478255751044	-0.0012978883630222395	-0.027229547330139544	9.76228841746764	0.02051479754443773
1.763435	1787824724952108032	-0.00034533672416844837	-0.00044992612705890557	0.0007693130320963914	-0.02876274924691284	9.8524358439115	-0.010136845538772893
1.770037	1787824724958108160	0.001920239705960803	-0.0032246407134950217	-0.002400934191885133	-0.0759863572599382	9.847359138025482	0.05635428627624568
1.774324	1787824724961108224	-8.205848266813034e-05	2.219420969861337e-05	-0.0013452593793315986	-0.0315170019252266	9.770148871395833	-0.003127712796456558
1.779108	1787824724967108352	0.001654915214618635	0.0015419174619721115	0.0015892948517191399	-0.004274487566612084	9.809093694304705	-0.0035869362092742912
1.780268	1787824724967108352	-0.0005976633221935532	0.0028101983080478033	-0.0019011819480610785	-0.06088032156807721	9.737935087326749	-0.0024064187671559104
1.788418	1787824724976108288	0.0018961013376232261	2.4549141789271186e-05	0.001420763222017638	-0.007487847395570679	9.776427909728048	-0.11587626055228817
1.793769	1787824724982108160	-2.0290692708692907e-06	0.0009630034632096363	0.0004598299723733692	-0.049199736267044186	9.813129895689759	0.03475393918097473
1.798247	1787824724985108224	-0.00016134694167435913	-0.0010845686245801141	0.0014520548682198813	0.0010515454622021803	9.852460905886312	0.02032406715524957
1.804479	1787824724991108096	0.0002735833949911061	-0.0003344699912028125	0.0009302223306997149	0.08398169986782865	9.830064889586598	0.011214555948663456
1.806871	1787824724994108160	0.0004320608585905077	-0.000640193679192151	-0.00024043483280866392	-0.054106216215394215	9.770723589359662	-0.07477983784768541
1.824747	1787824725012108032	-7.247592212439643e-05	0.0006732786687357718	-0.0014403688331950121	-0.009075097775611433	9.760431731363544	0.03679559207709193
1.828571	1787824725018108160	0.002348326418264217	-0.0011420581473111	0.001958733540499655	-0.0019480605975808613	9.8923193848836	0.017090137150416244
1.839196	1787824725027108096	-0.0001125465933469889	-0.00029402645730930405	0.0016578853803280963	-0.09655302855347328	9.762372333871728	0.06742716301751248
1.841423	1787824725030108160	-0.0010636716233148955	6.478540374235201e-06	0.000494381653709215	-0.02251161642648119	9.690251116313101	0.035760250718421
1.847352	1787824725036108288	0.00029307113492560075	-0.0007145580571240744	-0.002488142363893657	-0.01701535187679338	9.760574268870766	-0.004180429089879086
1.852518	1787824725042108416	0.0006786268641343196	-0.00020072388791292557	-0.0012781573110547278	0.05901398586152106	9.722595816328718	0.06603642543364814
1.859013	1787824725048108032	0.0014631282826620376	-0.0017597249291743794	0.0008954215221755077	-0.06488641657913458	9.73549461471164	0.06883121379161701
1.863120	1787824725051108096	0.0004101421898778354	0.003377715117974431	-0.0005545601950078832	-0.07598324813984414	9.831243560709295	-0.0016676309490025031
1.867061	1787824725054108160	-0.0006804052276451329	-0.0022076119486592756	-0.0003242756046069857	-0.12778070613985287	9.836127418531962	-0.05262172054772882
1.869772	1787824725057108224	0.0023135069361881672	0.00011673838437159943	0.001082587659981588	-0.053524815268061736	9.748277296865938	-0.1061760616728694
1.877887	1787824725066108160	-6.691481111405035e-05	-0.0011870054914887654	-0.0021290714129705763	-0.08608753132667579	9.811841673098513	-0.04748628518686369
1.881472	1787824725069108224	-0.0006729559532466673	0.0017149415625076609	-0.0011559981329554788	-0.034012480965575444	9.856344349040821	-0.03072018038561096
1.885651	1787824725075108352	0.001539514138773084	0.00033645347695033975	-0.001877298028360206	-0.04096461582558088	9.765889685110466	-0.004647814839770184
1.894789	1787824725084108032	0.00017004212901469614	-0.0005409326798843522	0.0008670479545705648	0.0015656428312723278	9.822520470947302	0.031609279999452504
1.895289	1787824725084108032	0.0037757214037768684	0.0022050525661290194	0.002588973555811831	0.06167982867595157	9.73451467758728	0.001300269965606964
1.900568	1787824725090108160	-0.0005929200790541078	-0.000609470812071835	0.0004727299227419344	-0.11067904283429048	9.703408594357382	0.030757485697698796
1.906357	1787824725093108224	0.00052930803312529	-0.002616943678130585	0.0006010790019661088	-0.016756244274478957	9.812306565188257	-0.053002286430235954
1.910923	1787824725099108096	0.0023191696918206475	0.0007168034836869695	0.001590701575905405	-0.08441540115825233	9.80995143818078	0.01706060533119372
1.918120	1787824725105108224	-0.0008929719436244114	-0.0012762754517128242	-0.00026158470840403257	-0.03254949257728579	9.783091114108627	0.015247298840496411
1.922734	1787824725111108352	1.5900157014575665e-07	-6.759980619718032e-05	-0.0021464992498408746	-0.08267883185012263	9.74521033660372	-0.033888309576427834
1.926585	1787824725114108416	0.0004248010239495557	-0.0017530180168015487	0.00305286498465034	-0.06264466885153375	9.773472626975513	0.0383983532400551
1.929496	1787824725117108224	0.002170135885679189	0.00038051851511447423	0.0016619113923286974	-0.08128134086561173	9.827533847740856	0.03745089973058742
1.935973	1787824725123108096	-0.001526664592013005	0.0020636023788040575	-0.002015616649925237	-0.0196427869911885	9.734737666104142	-0.029487718003944813
1.942471	1787824725129108224	0.0014313244554553812	-0.0013575745879723072	-0.0001887619526318957	-0.09322846230303475	9.818930313405067	0.0291070589829432
1.945887	1787824725135108352	0.00047584045695284915	-0.0013721976791668394	-0.0003013255082140605	-0.07045607658126699	9.81687479202442	-0.054533931445432116
1.951519	1787824725141108224	-0.000833978201501402	0.0005754771794744142	0.0019451013023824852	-0.07536200291465242	9.790455085214571	0.09471705642964096
1.957415	1787824725144108288	0.0012708877621143712	0.00026079964778098053	0.0004861641013249025	0.005576714181409911	9.829297267755226	0.06079101868322234
1.962394	1787824725150108160	0.0025034889544139002	0.0012995704120759043	-0.0005803611425508744	-0.009004491021625698	9.784273346413384	0.040158481834205284
1.967167	1787824725156108032	0.001253263939782289	0.0025371748523260436	0.0010840939845784586	-0.017744227548709322	9.835852088467432	0.03306567026576401
1.971981	1787824725159108096	-0.0006247866113222516	-0.0013024751772599589	0.00016135845498667186	-0.012721512376386822	9.765111006515982	-0.040570725524772755
1.977116	1787824725165108224	-0.00010710785336989153	0.002514514685486941	0.0008105410951781358	0.01367690738477495	9.85300494899364	0.000580927240006985
1.983330	1787824725171108352	0.0007294705621169513	0.0013875103460179751	-6.417152032257784e-05	-0.060667720652167675	9.787574159690672	0.00797337564103616
1.988368	1787824725177108224	0.0007675874532399458	0.0007111673486115982	0.0013997296032979777	0.059025431606649977	9.813123991250533	0.006930634702137184
1.991405	1787824725180108288	-0.0004970871864620447	-0.0013313074262502947	0.0005032302121317073	-0.04364724004103579	9.878750271917802	0.000853958280447124
1.995160	1787824725183108096	-0.002519093232553511	0.0023642570680139463	0.0006013468281701923	-0.06070413341045543	9.840021827364254	0.026575875981593017
2.000554	1787824725189108224	-0.00014358041361500447	-0.002874612720315478	0.0020619617226011492	0.020493335104424325	9.756451371649794	4.5047629494931324e-05
2.006019	1787824725195108096	0.0008350913443847394	0.00030547181159456415	-0.0014340022395906051	-0.06243136693578157	9.7765080297539	-0.012853624107106141
2.011759	1787824725201108224	0.0007811357624843582	-0.0006688914912715545	0.0010784576143797293	-0.08786125274411169	9.768959338858311	-0.035401831764335256
2.015896	1787824725204108288	0.0012372299372883254	0.00023906676342771608	0.0009009639287546142	-0.1206375087437698	9.794318578954073	-0.005624748817142639
2.023202	1787824725210108160	-0.00023437067290244033	0.0007031693090353439	-0.0007190871315769478	0.04251445062919429	9.760322152001157	-0.015721090831631947
2.026382	1787824725213108224	-0.00031149562898299846	0.001876473687945742	0.0005440893317324281	-0.03075256009783496	9.868336818665666	0.05137589823876203
2.033982	1787824725222108160	-0.0013577481952377398	0.0006317829945755185	0.00015892924549514706	-0.07971680134963868	9.77752791295533	-0.04039871557267911
2.036682	1787824725225108224	-0.0017650710893018068	-0.001956180685265782	0.001593798424505528	-0.0582083810257155	9.847954080507389	0.039062873350412426
2.044915	1787824725234108160	-0.0013856334486606985	-0.00022967808123796376	0.0011101518196144826	-0.0778011049686709	9.779158588615367	0.038007375002198945
2.047124	1787824725234108160	0.000844928681120686	-0.0021463760409735945	-9.77435358464133e-05	-0.09256319283634498	9.727410325022	0.04738936517745881
2.051587	1787824725240108288	-8.698176817361376e-05	0.002063421774808705	-0.0005172202214231355	0.006868657748947196	9.797302047082146	0.02959196683996272
2.060974	1787824725249108224	-0.0018706534162029186	-0.0008826036633908913	-0.0013393860243718953	-0.0705463988253903	9.820011471078669	0.022975248685113348
2.061474	1787824725249108224	0.001050422667381994	0.0025837691185901517	0.00032215787616297523	-0.048684533710826254	9.752187982050767	0.018481990829767682
2.070051	1787824725258108160	0.0012653865707088264	-0.0027728051983246555	-0.002612564051580065	-0.016263843584860167	9.805723103135913	0.020870960617228186
2.074327	1787824725261108224	0.003011293399501606	-0.00020713683595384598	-0.0009838563669857252	0.01960008476661848	9.716939407958604	0.007969490432554304
2.077687	1787824725267108096	-0.00021102060624789409	0.0016154831067107087	0.0018372889834268676	-0.12322008355044445	9.838273145436139	-0.0005194405229862562
2.082056	1787824725270108160	0.003333948261203367	-0.0002174539906100219	0.0011104590792876655	-0.029748825840088124	9.858424768720823	0.03229498067932557
2.087765	1787824725276108288	0.0019404959252161977	-0.002565850271380082	0.0017714958792514465	0.032340592327589616	9.81791411920281	0.03907935501153811
2.091351	1787824725279108352	0.003273723094402716	-0.0018707189080932598	-0.0009317115494610837	-0.007134851228957899	9.758905555684734	0.02180656487582544
2.097092	1787824725285107968	-0.001635951989789199	0.00429429306229777	-0.002124683480882763	-0.013254806524015963	9.789115489288374	-0.009211233579815889
2.101805	1787824725291108096	0.00025413184415596474	0.0016602992668759656	0.001994168004274546	-0.021163452394506975	9.77396017051012	0.0726601074985558
2.106398	1787824725294108160	0.0015709084334938192	-0.0009683421778171916	-0.0009080713375274621	-0.09012833016903582	9.768147563300676	0.014049594445520943
2.112027	1787824725300108288	0.0007959613625326941	-0.0019666608208090317	0.0005258150966197977	-0.06230756080517056	9.829593214012453	-0.02793542425637016
2.115543	1787824725303108096	0.0026715034983395836	-0.0009904284722019598	0.00048641314610598554	-0.14572516409467287	9.691815189651729	0.020077962901461806
2.125536	1787824725315108352	-0.0030268547379979885	0.00033897861045744016	-0.0011985615195757606	-0.09262028708723818	9.853563434106142	0.019270369271038076
2.127772	1787824725315108352	-0.0023595999383060028	0.002080995423866691	0.0013566207949173078	-0.08315601138394571	9.823623719526973	0.020967239032187543
2.132428	1787824725321108224	0.001118188614329536	-0.0033529343402537272	0.0025459519967120513	-0.061387371288350576	9.791432907896569	0.0176452000229411
2.138642	1787824725327108096	0.0010837007579170943	0.0008705204538330242	0.0020191969401817437	-0.05312764832240935	9.826017526576846	-0.03131371741445404
2.140354	1787824725327108096	0.001972039223576524	0.002974752193916107	0.0012888818871832858	-0.07423761556304623	9.810222436133772	-0.034575353920621395
2.148164	1787824725336108288	0.0002777854569193929	-0.0009323993018263183	0.0021876940907368347	-0.046089219624661	9.713237343822351	-0.001472630131617872
2.150602	1787824725339108352	0.0023987439613684697	-0.0014293491902991448	0.0012995752198606489	-0.11406008658035141	9.747047858132033	0.011061909672557801
2.158716	1787824725348108288	0.0008106986154618074	-0.0007444004642544959	0.0012332937142364555	-0.008187317881629387	9.860385847385981	0.07331199744092168
2.163484	1787824725351108352	-0.0004946593786462143	-0.00022286120213228599	-0.0014767142748797672	-0.06615683791951571	9.829762132283474	-0.03728014413115103
2.166614	1787824725354108160	7.914534519201773e-05	-0.0008039239402097126	-0.0027379409689567984	-0.016558302203160236	9.780267520232336	0.02718897502566766
2.174754	1787824725363108096	-0.002153783813180143	0.001853993611216971	-0.004336335953712556	0.017850526190281955	9.785293322842637	0.028334016537848977
2.176320	1787824725363108096	-0.0007413813241005373	0.001961472876607675	0.0017690573612319568	-0.062493957338632763	9.812910563946211	0.07945288665548979
2.181106	1787824725369108224	0.001993716101500723	-0.00010568099629217353	-0.0017176912264641791	-0.11788776978422408	9.83605256181444	-0.05354564169508193
2.186300	1787824725375108352	0.002226659323356411	0.0008203492727331652	0.0018277966683498668	-0.0939074500576825	9.72318032724029	0.00033425955959653746
2.191032	1787824725378108160	-0.0007495091876130764	0.0009606657593323167	-0.0007449451897550125	-0.03727237190103973	9.753967300977784	0.04812144475436811
2.196838	1787824725384108288	-0.0011128155679757442	0.0020779381539666507	-0.0013167334567615722	-0.09412669868923298	9.751421468208111	0.03893111496537703
2.204256	1787824725393108224	-0.0003654461315561554	0.0019549462733405793	0.0007736968908929666	-0.024376041024442408	9.739596111264566	0.049386405779316446
2.207389	1787824725396108032	3.459471010516179e-05	0.00044906497349380856	-0.0012433971885397715	-0.04132941708531984	9.829564826061153	-0.054265152638168695
2.211411	1787824725399108096	0.003612196863786735	0.0006165222258299369	-0.0032120109162321066	-0.11707696229169035	9.822983197177464	0.017970448735132247
2.216972	1787824725405108224	-0.0022755762319652487	-0.0013534376319646222	0.000494506472118558	-0.0017172723326375691	9.846183542792298	-0.02661475426029193
2.224350	1787824725411108352	0.0017975046975390568	0.002032173193333373	0.000737377452731095	-0.09056211193053562	9.74444020314564	0.0017434135943192337
2.226300	1787824725414108160	-0.002082714741485583	0.002491840767065631	-0.0019394308453582927	-0.08752418788932306	9.777061680373869	0.05579424666217554
2.232699	1787824725420108288	0.0020771553284270176	0.0007879178440103707	-0.0010870445168196699	-0.12595023898045826	9.835204411580998	-0.05052588642648749
2.236807	1787824725426108160	-0.0002523616912128742	-0.001332911547284432	0.0010346787125927283	-0.02964623568367837	9.798471628153923	0.06204399282342573
2.243461	1787824725432108288	-0.0016118939113850092	-0.0004140759446759588	-0.0024318247975767494	0.0178317910822844	9.799442858948455	0.04477161217937125
2.245671	1787824725435108096	-0.0003247396980619301	0.000750309963805437	0.0027868759811967626	-0.03816319907819349	9.76582595712989	0.051765938102369805
2.252590	1787824725441108224	-0.000712801922904518	0.0015360484707152003	-0.0007914272143504244	-0.033544180637138425	9.842231304512122	-0.005722580490696669
2.258696	1787824725447108352	-0.00036401307634779603	-0.0007727849195518681	-0.0006974324581774224	-0.09276098326172202	9.765833917938393	0.033010425398128325
2.262453	1787824725450108416	0.0022163517437270752	-0.001037046794642034	0.002152401968164601	-0.061608435616585425	9.906210278313306	0.045231399473311854
2.266335	1787824725453108224	-0.0007870721324004002	0.0004028542215191807	-0.001653503092538274	-0.08389018313718369	9.820880026692572	0.047742112968715285
2.271124	1787824725459108096	0.0010416584333700263	-0.0014945472690076924	-0.00023377831263511465	-0.031491770370936194	9.787794085485087	-0.028692561627091523
2.277230	1787824725465108224	0.000615672123324373	-0.0024035661101025475	0.002400112251482405	-0.03844526225719758	9.77304362150649	-0.029516187035782425
2.281493	1787824725468108288	0.00012396606333162219	0.0019517542646210828	0.0005166892824238188	0.06619157574130127	9.818610993222107	0.015016341862066268
2.288100	1787824725477108224	-0.0003247420001985253	-0.00011069072947225381	0.00014063822817066046	-0.015162257845635685	9.761566068912197	-0.03221803116958882
2.294053	1787824725483108352	-0.0010046859490971708	0.0009506809748435666	0.0005272653584122159	-0.032707714397351755	9.8199903449467	-0.043410057397390046
2.298113	1787824725486108416	0.0010316655931799997	0.002455007730539575	-0.002763073191589141	-0.0473645728696756	9.764566494036181	0.025626532785314446
2.299884	1787824725489108224	-0.0009862259900235754	0.0001722337705648882	0.0007027800753941056	0.023975311791756236	9.776281286020598	0.06082239619812829
2.308429	1787824725495108096	-1.2109649091486359e-05	0.0004199507906970037	-0.00044753263557621687	-0.04130944693074232	9.71050740144686	0.009828222585239375
2.311329	1787824725498108160	-6.286084020156811e-05	8.21465898181631e-05	-0.002414990090710911	0.014514175405312878	9.841129019679308	0.05690585685702482
2.315718	1787824725504108288	-0.0009670966103533762	0.004096570003466363	0.0030346867948750117	-0.005678017488459759	9.79919849680561	0.044485800835798
2.320454	1787824725507108096	-0.0006316714238493423	0.0020539086170924307	-0.0016400448625060763	-0.07053153329988102	9.812336350550966	-0.0053736477227262405
2.326845	1787824725516108288	0.000462077577941787	0.0019195243708467911	-0.0030810950065710946	-0.026072180649385962	9.80074694301841	0.082262259554129
2.329842	1787824725519108352	0.0016164946414578502	0.0010225942887786194	0.00033410722650315585	-0.006815186118632632	9.772609328935324	0.023611568817156155
2.338649	1787824725528108032	0.001736075957477366	0.0016160826083779633	0.0006043491024170993	-0.07563026260767589	9.776138602734456	-0.0351894854858906
2.344098	1787824725531108096	0.00182669387258789	-0.0031631394519398186	0.00033514800773496903	-0.02821269439022943	9.767722935051014	-0.0040081361881986015
2.348806	1787824725537108224	0.0019268477814013201	0.0016996525044085838	-0.0013150576522336333	-0.0546099275015854	9.795383964891476	0.03962657794433103
2.353388	1787824725540108288	0.0011813268235395219	0.0003684399970792305	-0.000505503375753731	-0.008745046762922676	9.814757930643433	0.019884759606031647
2.356324	1787824725543108352	-0.00015774603687168372	-0.0008881870452523403	-0.0034115565316394348	-0.029974751923412743	9.766627737602274	-0.059437414457556625
2.363978	1787824725552108288	0.0033082141676401933	0.0004101812197016777	-0.002902325898149315	0.028732817853957225	9.790449632551118	-0.003850361610649361
2.369964	1787824725558108160	-0.0022166858112823012	0.0018881775516087999	0.0003900519890889553	-0.02830852219965661	9.775489354788226	0.08655755390143148
2.370984	1787824725558108160	-2.6204081298052527e-05	0.0003923451728558239	0.0009781843667836599	-0.05304529881094633	9.773900548123073	-0.0177868903693772
2.377671	1787824725567108096	-0.0009580850371998063	0.00221496185137552	-0.00028684554937293043	-0.10012066264011976	9.827425668873314	0.03149150544415479
2.379528	1787824725567108096	-0.001697064902148062	0.0026077468719035283	-0.003956691108887618	-0.08338506288623362	9.816214504799872	0.007378644028157355
2.385449	1787824725573108224	0.00035237958811025477	-0.00021758287384580655	-0.0007008430347408325	-0.023470058849063932	9.818980276020815	-0.06609093005065145
2.390302	1787824725579108352	-9.289002589444802e-05	-0.0016692534007780055	0.00011684397798148772	-0.06695304415268952	9.758533853506918	-0.01593349900336131
2.397639	1787824725585108224	-0.0022747841975848736	-0.003288802665105849	0.0009901450299491723	-0.06402180516185407	9.856372923291396	0.013828468125530012
2.403740	1787824725591108352	-0.0015390285734895243	-0.0009938687162380768	0.0001918948405586665	-0.007732630085197305	9.843134713179472	0.026213084513416945
2.408619	1787824725597108224	0.0023765051879605726	0.0018147467992268838	0.000638911727635209	-0.06570316013588826	9.77387745161846	0.03494999406259999
2.414758	1787824725603108096	-0.0027461377191261237	-0.002759211176937801	-9.6366688997007e-05	-0.09528154396103872	9.816445285497515	-0.0419728731713697
2.417662	1787824725606108160	-0.0009386465713863015	0.0013404706888579172	0.0017561041387283215	-0.08806749669236455	9.756299241377809	0.04674008923214272
2.420481	1787824725609108224	-0.002184234202198597	-0.002913621074149936	0.0007498836744923348	-0.05651604448005561	9.832412409229145	0.045120632506991665
2.427321	1787824725615108352	0.0005523670527679325	-0.0018119953823141693	0.0007746884649167014	-0.14736952957627397	9.811802237924939	-0.08910590867726745
2.430663	1787824725618108160	-0.00029545766907167773	-0.0007099822338521891	0.0017192188720195995	0.02097669247744676	9.772930296357245	0.03168386347613365
2.437986	1787824725627108096	0.0012498191343141062	0.0007513147487739171	0.0015098055483905826	-0.023296584420935344	9.76749472558118	-0.032827908843646746
2.442778	1787824725630108160	0.0007106570128791713	-0.0012337628145126026	-0.0014981139661902022	-0.07691243486565694	9.740009611755195	-0.061377380627959624
2.450874	1787824725639108096	0.000311966672117527	-0.0024431340037096142	0.0010783305103135418	-0.0475108329263529	9.767756323095806	-0.0722677514398291
2.451993	1787824725639108096	0.0018337081238135212	0.0012240565916130815	0.00010361338310511133	-0.017776501677639604	9.761820498612892	-0.055654115851201544
2.460577	1787824725648108288	-0.0033367535991268363	-0.0006450283102439815	0.0007108981517900966	-0.018876234808101106	9.763460152990243	-0.06516294810023955
2.462360	1787824725651108352	2.416669302113218e-05	-0.0005522289209719189	0.0020902908362839217	-0.02444587944041683	9.768348546266338	-0.03312305018045589
2.468220	1787824725657108224	-0.0033067048316529728	0.000750749382121494	-0.001060411616231443	-0.08479597012025253	9.75877338049492	0.011250716327906507
2.473463	1787824725660108032	0.0005115353992480782	-0.0012752540668520905	0.0014443629265858116	-0.03133258459898854	9.760630927394832	-0.05732906762400587
2.479782	1787824725669108224	0.0004861315611048467	0.0004543640250981824	-0.0016855500097016066	-0.014270073600140994	9.783594133643446	-0.0007971699211786389
2.482786	1787824725672108288	0.0009348166590292779	0.0003667967147652628	-0.0012256717768601591	-0.0679113154254386	9.882737106967758	0.05879167143679457
2.489439	1787824725678108160	0.001461864481113479	-0.0015069019005483977	-0.0005223788822853241	-0.012101555181145467	9.723207270467686	0.013565237489440432
2.491457	1787824725678108160	-0.0004182018906481283	-0.0007802664107621753	-0.0018392472174090183	-0.073922127380744	9.719406534628009	-0.03128173971043204
2.497409	1787824725684108288	-0.00017269540246319135	0.0013058855008966184	-0.0026811593295350553	-0.0022794263834991016	9.715498437365634	-0.005489281861817791
2.504417	1787824725693108224	-0.0003642268574835336	-0.0003012743599723514	0.001602179646688343	-0.07019711504201849	9.807283283988273	0.028062301972959683
2.506321	1787824725693108224	-6.546040898182716e-05	-0.0012539509791578214	-0.0017574377822833888	-0.10269116396968064	9.753792724374916	-0.018749583823650384
2.511139	1787824725699108096	-0.001315402957140923	0.002488246288668343	0.0012340744173956354	-0.04913790982515649	9.806445581670681	0.008901713581255301
2.516123	1787824725705108224	-0.000782344972650684	-0.0006410047232285269	0.0004730900041335021	-0.06212882544987181	9.790099454366421	0.02289515964111025
2.522293	1787824725711108096	-0.0009766860403762482	0.0003092057419900204	0.0020914188787327695	-0.01320379798284807	9.806429340096164	-0.0015314164363450355
2.528828	1787824725717108224	0.0006940902108624481	0.00012605535247750722	0.0018019875137165594	-0.021899096310230272	9.782457754233855	-0.05604701978692801
2.530529	1787824725720108288	-0.0019899372885103205	-0.003527408779918325	0.0016984173275662424	-0.07915848098469656	9.784497924059448	0.03389220252770772
2.537241	1787824725726108416	0.0015099712301208722	-0.0010214737800222952	-0.001182583642043254	-0.10266902784294388	9.753746107921403	-0.025951649812331667
2.544962	1787824725732108032	0.0020078829658825435	-0.004146698129006033	-0.0012171287828464986	-0.05378273482998429	9.747773250009784	0.017681297096875596
2.548733	1787824725738108160	-3.927473055269046e-05	-0.0011544671150157323	0.0009877819657023354	-0.05296432082435005	9.83225123452034	-0.03857250258624669
2.554212	1787824725741108224	-0.000601463553959442	0.0001785480474982042	0.0026246512939557733	-0.06280183870644115	9.78757626773578	0.015954052484602185
2.556697	1787824725744108288	0.0017065524713250615	-0.002327911453512227	0.00040912254278915704	-0.04383726648231553	9.807954992167431	0.03193961837466125
2.563539	1787824725753108224	-0.0006274729627195407	0.00038057190678766537	-0.002794735041256597	-0.004756914545921913	9.705738527228162	0.0636034482162105
2.568650	1787824725756108288	-0.0006859540633190442	0.0008179214489410147	0.0018045122098587863	-0.04552665093272218	9.825122005452291	0.09300206201869583
2.569811	1787824725759108352	-0.003162394616939404	0.0003201851692187786	-3.960050271525076e-05	0.0354995353157744	9.848530705170882	0.026255830354408857
2.576850	1787824725765108224	0.001186557003723528	-4.5278175638173787e-07	0.002606317062191018	-0.08824154764329102	9.738673473466818	-0.05832006332809424
2.581348	1787824725768108032	0.0032946349908509064	0.0008026526801493205	-0.0035702396919830457	-0.03139231467288691	9.787030124773791	0.0739202198795621
2.585955	1787824725774108160	0.0013879549143806004	-0.00018478039929004407	0.0005470708905751531	-0.12594465162672547	9.728082105138284	0.06153690545534596
2.591927	1787824725780108288	-0.0006110508422483095	0.0020128015126961198	0.0007435679529558885	-0.033570278417694374	9.820327803453154	0.08547424292148663
2.599319	1787824725786108160	0.0033448481826758997	-0.0012927165331562303	-0.0011751430837767657	-0.021860218653191592	9.82217367978608	0.02910721651304435
2.600141	1787824725789108224	-0.0017846574384720823	0.0006523192258923835	0.00043646367007619803	-0.06474106095969577	9.729035798956023	-0.048102334361684804
2.608941	1787824725798108160	0.0009166433104397157	0.0009042857160256006	-0.00031074798663909686	-0.12708731370846052	9.780455729206617	0.048260264990232365
2.614361	1787824725801108224	0.002438598530502248	-0.001915668469345465	-0.0022574285690194376	-0.11531160866775217	9.758308113992168	0.028898497032488937
2.618653	1787824725807108096	0.0032936953261059033	-0.0005751727223616836	-0.0008267673080666853	-0.02615942280918186	9.848233763811129	-0.0022856652806815467
2.622977	1787824725810108160	-0.0012727170368545763	-0.0005249230370743472	0.0038962683352969808	0.02901129839787757	9.825056764019875	0.02188556935317058
2.625347	1787824725813108224	-0.00012372517530243363	-0.00010533212169945074	-0.0005790611475037871	0.014591355320434124	9.770483812421334	0.05614266793871396
2.630716	1787824725819108352	0.002455338928761956	-0.0009253711812362471	7.33325147592005e-05	-0.034106622169163006	9.739664293771682	0.06587417648504311
2.637723	1787824725825108224	0.00240539402907176	0.0030149299096796445	0.0014205128067429397	-0.1000548438949784	9.766641099042678	0.007775865169442824
2.642039	1787824725831108096	-0.001188681499429073	-0.0003195964464970575	-0.0028132187629600586	-0.0018317613009685013	9.792501461588214	0.0469400605974339
2.650874	1787824725840108032	-0.0013392201907693518	-0.0015988591552005007	0.002751271804362682	-0.019618316871996916	9.830542846450223	-0.07518957801433446
2.652841	1787824725840108032	0.0021868179040303083	0.00017891620047164237	6.846200986084646e-05	-0.059929870680590455	9.78922723709943	-0.0029376386669605972
2.658058	1787824725846108160	-0.0010441408573130687	0.0029444254752465037	0.0008622125200943747	0.010420400245518324	9.92581202537979	-0.01584116239781695
2.662411	1787824725849108224	0.0014170022632638472	0.0006779919334005095	0.002066275395019605	-0.0520230846747981	9.796182641588484	-0.002247310926094828
2.667206	1787824725855108352	-0.001224260076932056	-0.00359765631621083	0.0007688089521414998	-0.06051073203601243	9.774245798278084	0.026317650408894416
2.672055	1787824725861108224	0.0020910737676898853	-0.002741063432324266	0.0005708375732399154	-0.10143906009989227	9.796422135039526	0.07366185754829226
2.677290	1787824725864108288	0.0009032260715269015	-6.018240014401978e-05	0.0007991163994942172	-0.060549701330462925	9.807061029460618	-0.008864388977653872
2.683259	1787824725870108160	0.0007023371780062432	-0.00013890148770601504	0.00285707724070631	-0.14807368460695502	9.728260607768341	0.02392491189902993
2.687609	1787824725876108288	0.0020537661652550014	-0.00020135346438448202	0.0007699317232063216	-0.07433331748136154	9.774554478645808	0.035498287475966124
2.693254	1787824725882108160	0.003332826994646931	-6.577790823776134e-05	-0.00021437970071130078	-0.07955582923239185	9.761828462585983	0.05305943421511514
2.699462	1787824725888108288	-0.001698746574531021	-0.0007851657517709287	0.00026573700250441057	-0.04006087134666511	9.78569436491257	0.07641040959420085
2.703099	1787824725891108352	0.0016841281142045829	-0.00043258293651385224	0.0015822067311704999	-0.005798842620436256	9.73503732606151	-0.02055205624057872
2.707812	1787824725897108224	-0.0036333936915482214	-0.001427584259592449	0.0017176276240938797	-0.020454568046703064	9.891593086601816	-0.03985071996544448
2.712413	1787824725900108032	0.0011432360693149238	0.0007389615858235059	-8.997622341097262e-05	-0.08143700410717528	9.835472297382962	0.013185065386132393
2.716173	1787824725903108096	0.00010517903753396346	0.002622645107407479	0.0007544148971893256	0.008993872199003765	9.813430803969823	0.025860414952505923
2.722223	1787824725909108224	-0.0007169882285773644	-0.00021457226038224192	0.001548237856980768	-0.04382579434802891	9.788357918659562	0.0244088228092055
2.723786	1787824725912108288	0.0007807134677847441	-0.003975523780177623	-8.374259964863619e-05	-0.02525690336425467	9.746122762418034	-0.006628999713195263
2.733246	1787824725921108224	0.0038787538091607766	0.0008812890555757836	0.00037187683008122597	-0.023604534420455577	9.81840925797136	-0.006131518617215715
2.738410	1787824725927108352	-0.0006889249301599967	-0.0004496216764625013	-0.0006725437466741525	-0.10002140104384988	9.742315926886997	-0.06897895078682706
2.743162	1787824725930108416	0.0008092272999652917	-0.0006650867261631228	0.0018854613500196861	-0.0018443975822429876	9.796007534381348	0.03566306897040522
2.749116	1787824725936108032	0.00020742911858100783	-0.00032089422250465495	5.28192195216819e-05	-0.019803063076465843	9.719502245709933	0.061015087743792544
2.751149	1787824725939108096	0.0003940400512451282	0.0015853848754972695	-0.0013504745120971168	-0.08173952864889655	9.749389083536528	-0.06926945815206782
2.759557	1787824725948108288	0.00043841921915710377	2.4855372371625713e-05	-0.0002853038830295217	0.005038941521477568	9.812108349892165	0.025796661576906105
2.760057	1787824725948108288	-0.0022377418758088327	0.0008166180847484752	-5.584305716923147e-06	0.060249760913011895	9.76652428434718	-0.019839880505920563
2.766989	1787824725954108160	-0.00019902993456443998	-0.0004833895481424642	-0.0021151571083413367	-0.07137524347860813	9.820642384378779	0.05569693697088627
2.772576	1787824725960108288	-4.5434423955753315e-05	0.0006200518872019813	-0.002018604969005659	-0.03252123292675083	9.782697958478801	-0.011733295070699274
2.777822	1787824725966108416	0.0019794922540030614	0.0005587211585187672	-0.00019254250072918883	-0.0969791474897997	9.772462926765183	-0.09517878105525247
2.782479	1787824725969108224	-0.0009649363395276509	0.0014427444976453842	-0.002029659727830428	-0.017767411062327265	9.814805698138734	-0.006515512426414339
2.787369	1787824725975108096	0.0010250792157227094	0.0002303923135073594	-7.591651883978735e-05	-0.09761697023955782	9.69488286303547	-0.027014072892963224
2.791447	1787824725978108160	-0.0002171931435385406	0.0016496112871460338	-0.00045756311839225224	-0.009114385950604972	9.796741786372984	-0.045035654356147266
2.797813	1787824725987108352	-0.00039484870371786273	-0.0027511467273273085	-0.00039971872512299477	0.0021951273953912318	9.731238867531177	0.05302237614535979
2.805831	1787824725993108224	0.0016005279528666944	-0.0010803063503066082	0.0020687311071392973	0.0025245290406315443	9.765895437068819	0.006111084269416058
2.806999	1787824725996108288	0.003212872234667709	-0.00057070211070468	-0.0014404714622181587	-0.13068913534747378	9.783230968457367	0.021026113472216463
2.815360	1787824726002108160	-0.0009457670408399946	0.00022200399185738975	0.0025671262632228583	-0.10660347701000072	9.725673278158464	-0.0966955504642753
2.819059	1787824726008108032	-0.0010316484061766407	-0.0002663967864444615	-0.0013010417729528761	-0.039246202120761214	9.836545957829738	-0.007036888037171649
2.821174	1787824726008108032	-0.0023740499681431586	-0.0013973510591144588	-0.0013953869691251534	-0.05720923413951033	9.70755115300366	0.027214382123032413
2.829460	1787824726017108224	-0.000774601323709525	0.000742977327225631	0.0001305381370183133	-0.07510864086838273	9.728574682485215	-0.03167947368082361
2.829960	1787824726017108224	-0.00021420592834097628	-0.0008038453440237888	0.004585747055317973	-0.02488924507663135	9.848242126646038	-0.0021765813123680085
2.836305	1787824726023108352	0.0002529609184727789	0.002133594858789954	0.0033389243523710027	-0.026577532222563545	9.845876305202292	-0.05436596212287896
2.843959	1787824726032108288	-0.0001040266845983786	0.0028851415044988627	0.000855534201668966	0.013175336448111287	9.76220463324084	-0.02881323864417506
2.847246	1787824726035108096	0.0019124512008634883	0.0015834710663481784	0.0037311001341085314	-0.07635926300159349	9.885760686460785	0.05129243112333565
2.853656	1787824726041108224	0.0011219343471863636	-3.2395483422545705e-05	0.0008208501051019482	-0.009308972793943888	9.866178514128068	0.024967717374501673
2.856131	1787824726044108032	-0.0008618980715718571	0.0013254939390469538	0.0008335823480866209	-0.03967293324728233	9.810012793184127	0.02017601601391429
2.860898	1787824726050108160	9.003665113630234e-05	0.0016324236393098508	0.001168208394332055	-0.05272833236923675	9.790276016577089	0.02753938622340818
2.868821	1787824726056108288	-0.001342090226006736	-0.001936653820795001	0.001555020314411899	-0.01982368186881959	9.77507271508088	0.01157917273058683
2.869861	1787824726059108352	-0.0006952161218206527	-0.002605480966476224	0.0001574620886776468	-0.018141384846409127	9.775710598972612	0.0731967600246752
2.879152	1787824726068108288	-0.0012101207179872036	-0.0012682378240674854	0.000535537631733477	0.021927761302559502	9.79293128675802	0.05527674393874524
2.883451	1787824726071108096	0.0013560529877133325	-0.0006101620549556886	0.003203118369681417	-0.09997348073607915	9.725118381496252	-0.0012117260328039434
2.891720	1787824726080108288	-0.0023656307137474336	-0.0008343248333864106	-0.00042058088984718724	-0.07814129552822918	9.681353585024333	0.012195937985787421
2.892220	1787824726080108288	0.0014359583200640633	-0.0034817065200513555	-0.0006020609406215769	-0.034550099499975555	9.757876068468262	0.022199065862838693
2.894736	1787824726083108096	0.0013763496318590187	-0.0010903427984548947	0.0018566950487620079	-0.030261176908434287	9.84711034673494	-0.06377008117305666
2.903227	1787824726092108288	0.0014714815561531907	0.0018468060075758656	-0.0027373861252274617	-0.0628544853967957	9.735432071233202	0.04036343434538599
2.908300	1787824726095108352	6.381412663648808e-05	0.0002019637875143817	0.000831495734598275	-0.09917882775981948	9.75723180231981	0.052650934640431586
2.910913	1787824726098108416	-0.00023396528686099816	0.0010737526037630954	-0.000105607301788242	-0.023341609383905212	9.741579240757494	0.0653974906225124
2.917858	1787824726107108096	-0.002400556620785772	0.0008440065722206685	-0.0006942435098918237	-0.030875007314096932	9.845020216802121	0.012037070541702168
2.920800	1787824726110108160	-0.00041009436187675275	0.001340416230559516	0.0012828258305689342	-0.017778345047507076	9.848201451725538	-0.027133700674994682
2.927542	1787824726116108288	0.00047864651313754417	0.002245425219480149	0.0009825241323501762	-0.08710886458819214	9.772828556120597	0.026773353894105675
2.936576	1787824726125108224	-0.0015376653401806331	-0.002454347196142956	-0.0003884818000918241	-0.0363483307481051	9.848147277805062	-0.1586483776561673
2.937104	1787824726125108224	0.0007864759978816045	-0.0007853673923805216	0.0016050975042256378	-0.08626629272523387	9.751755853133075	0.02061624288263865
2.943021	1787824726131108352	-0.0043878143836152085	0.00037722986331152836	0.00011632096603870764	-0.01593470062973182	9.76452688241594	0.05172032432798119
2.946709	1787824726134108416	0.0007819825116645711	0.002106074246723338	0.00043449210117245716	-0.08862033351169424	9.755032028952911	0.005614624955906822
2.954095	1787824726143108096	0.00350966774845384	-0.002260539725505762	-1.4581953576028925e-06	-0.008487036482635033	9.694925316059992	0.029274288548553695
2.959189	1787824726146108160	-0.0018546694834024986	-0.0015238855315184065	0.0012994387100991362	-0.06431331482183689	9.696362573370209	-0.0033467595145597554
2.964278	1787824726152108288	0.0017070927447456565	0.000943983341570158	0.0016463414668876275	-0.07845707881120192	9.75627489718985	0.0067647411223924776
2.968410	1787824726155108096	-0.0009180887170834557	-0.0001527254596870902	0.002607499391662315	0.06278432320918145	9.830737952783878	0.00046808551941958723
2.971564	1787824726161108224	0.00237354899339901	-0.001957352789635871	-0.0008155280889100444	0.00622430153658788	9.836072806848147	0.06537616861744952
2.974971	1787824726164108288	-0.0013227139076469115	0.0030180412130854455	-0.0029472145276195046	-0.10985345999247986	9.744392083975503	0.044712871610460385
2.980099	1787824726167108352	-0.0018662736290277566	-6.92315862719758e-05	-0.004219487082193541	-0.04880029035456011	9.793629144650065	-0.017811281231254517
2.986739	1787824726176108032	-0.0007882130429037985	0.0023101174952416714	-0.0015830817757774977	-0.0735396048212118	9.749893766302026	0.03664764205281808
2.995123	1787824726182108160	0.0010436502516937304	0.0018994150473811758	0.0033957822677948162	-0.03404936075406245	9.750918099255358	0.011710319877009738
2.998083	1787824726185108224	0.0009558142493763161	-0.002562376748641112	-0.0005631977969730068	0.00985160799161492	9.792439032762141	0.06420106246385332
2.999663	1787824726188108288	-0.00022273804148756772	-0.0009440766352377165	0.0015881447624789898	0.0007677090754847835	9.772911872715357	0.020360852248550186
3.008190	1787824726197108224	0.00038422636614959577	0.00048653629337964575	0.00042495792567003385	-0.12758754137848716	9.817476302643247	-0.050957638529838416
3.010845	1787824726200108288	-0.0010737311511592983	-0.001094627184039342	0.0007255460045799133	-0.11607321160586412	9.830043312098109	0.008497573002710368
3.020124	1787824726209108224	0.0017411148149027306	-7.069077208848608e-05	0.002117645194529172	0.02159268704729759	9.78559018678718	-0.04207551039093453
3.021560	1787824726209108224	0.001982056237756725	-0.00038654074190760143	0.00010297565424699784	-0.06059684937006226	9.774392207802137	0.015621214912683005
3.025836	1787824726215108096	0.003429306932632737	-0.000856132370937001	-0.0001469869022568296	-0.014303879001425275	9.7706649102358	-0.025383307078459177
3.031645	1787824726221108224	-0.001126264018995448	-0.0011928772380380924	3.1601674039159317e-06	-0.03278561538100537	9.803166866430034	0.000643125040255637
3.036384	1787824726224108288	-0.0018802624207793748	0.00013538653480076382	0.0003288523985037647	-0.040568446673689515	9.736021770556153	-0.07818277168964134
3.043098	1787824726230108160	-0.0019054446162048435	0.0018093760636939149	0.0005928240013435322	0.007789929476482375	9.830257857558559	-0.031155938517923122
3.047738	1787824726236108288	-0.0012140495874548732	0.003088670557965091	-0.0016391416586703869	-0.07101725814165935	9.816282358291396	0.050121473781952114
3.053701	1787824726242108160	-0.0037344734101775437	-0.0012180112806799007	-0.0013167495645523223	-0.07594065924218277	9.672365363907938	-0.056173047805526344
3.057827	1787824726245108224	0.0025526925420019564	0.0004069949700302924	-0.0008784952323525364	-0.01746229799295764	9.76892014426817	0.06174004498597141
3.063791	1787824726251108096	0.0005776130478782464	-0.0007114934713792164	0.0006512047400534063	-0.07473150481539964	9.780962530237238	0.013691050062779323
3.067053	1787824726254108160	0.0022677572279252854	0.0010885656760516451	-0.001289949665460293	-0.04380739665481118	9.876368796606705	0.0736726284263997
3.070017	1787824726257108224	0.0012362280892884631	-0.0009049974591239419	0.0001351066597873711	-0.012748675634850486	9.81086923439987	0.011022655400730788
3.075306	1787824726263108352	0.001699388688962979	-0.0005492359081003131	0.0013647790775589317	-0.04977104962187587	9.711721557233576	-0.011505404293405592
3.082957	1787824726272108288	-0.001390204697074827	0.0004032051180040113	0.0003003767408994151	0.003123468373730745	9.798425983400785	-0.06619583471794561
3.087317	1787824726275108096	0.0006351233988919522	-0.0018872023182187126	0.0004012915604758483	-0.03661958657593152	9.769149702716273	0.07492460149785488
3.092562	1787824726281108224	-0.0023029521663688163	-0.0005817661569679233	-0.001766816481527919	-0.039154862356579084	9.773951896990123	-0.0023676713927929458
3.098685	1787824726287108096	-0.0015725387825005874	0.0010737724817781384	0.0007912102255852309	-0.07204431982763654	9.814743641369864	-0.022763357280493668
3.101816	1787824726290108160	0.00294110810617703	-0.00170785782252424	-0.002396312999007359	-0.005022061992655286	9.869883910111557	-0.038799923140097524
3.106635	1787824726296108288	-0.00192703404367151	0.0004609632302391978	0.0006398011617958587	-0.06975808622598433	9.717730425231839	0.005710523233085896
3.110336	1787824726299108352	0.0024311838363635443	0.001977880058133428	0.0010863902620721524	-0.013636997434201041	9.834696165509552	-0.006645147336629357
3.116858	1787824726305108224	0.0009928319241955036	-0.0002580746809108849	-0.0029174498917078325	-0.011008975821234966	9.791524266246926	-0.01645036623575593
3.121591	1787824726311108096	0.0022903323402945325	7.572510385386043e-05	0.00032077551758621855	-0.05262552040730414	9.756838831640383	0.049422805346875744
3.127656	1787824726317108224	0.0003174816769223516	0.000230165042956425	0.001377216874534826	-0.07794654003977954	9.863818492352172	0.02069569176327326
3.133370	1787824726320108288	-0.0001729542115201818	-0.00039151570803016726	-0.0019485150875468682	-0.04846943587699336	9.68427202306892	0.049087702497139105
3.139673	1787824726329108224	-0.0010797769331794237	0.00018218887292932757	-0.0007020115165818479	-0.09579568298113467	9.817368652644925	0.003246348134443363
3.141933	1787824726329108224	-0.0013123432529123264	-0.001686821206147532	0.0030218768666801137	-0.007224928505628898	9.75581924350795	0.0556317683981741
3.148289	1787824726335108352	-0.00039761263680214903	0.001957789736500097	0.00024823888691075975	0.00018720443264783754	9.716695044195761	-0.03816857922014884
3.154834	1787824726344108032	0.0016653817254279116	-0.0010381097254708687	0.0019356868773122463	-0.08052557120142675	9.780879660872262	0.047426258882174555
3.158655	1787824726347108096	-0.0005467997437793144	0.0029537722747697646	0.00014201041937681846	-0.05982616461206544	9.772770406989396	0.021085259876399424
3.162230	1787824726350108160	0.0005624812653211153	-0.0008452871841441423	0.00024718617886627237	-0.03193036312157999	9.805711137890748	0.02646693051694106
3.169365	1787824726356108288	-0.0006878052024380346	0.00044767193669896196	0.0006351690003807617	-0.02155176160363558	9.797102653833258	0.014243224493603341
3.173963	1787824726362108160	-0.0002459882321509742	-0.00238959395796176	-0.0010114659760531758	-0.005587195730704611	9.719683868502464	0.028997478507338175
3.179083	1787824726368108288	0.000689276501414719	-0.0008356617963988391	-0.000880851682885537	0.006275928114953436	9.842662131433231	-0.02831781419202163
3.181543	1787824726371108352	0.0016439235106008566	0.000806932443393213	-0.0005998018121135627	-0.058764106999926916	9.78805004669723	0.04911744287215976
3.186675	1787824726374108416	0.001147677454890407	0.003155897576926211	-0.0011122159813545408	-0.020233434961108333	9.855613450263812	-0.007877593831142574
3.194985	1787824726383108096	0.0009955585034306924	-0.00012484529992120707	0.0010967842609643235	-0.08761682890555411	9.71672378124568	-0.016721418496509637
3.195485	1787824726383108096	0.000692569780657997	-0.002515928972422389	-0.0020554329461318086	-0.05829897538975059	9.738991331937294	0.016735477937176852
3.202767	1787824726392108288	-0.0013764965763718336	-0.0014221751354513497	-0.0008836448607064865	-0.10593516416875212	9.765729965257808	-0.0011511474211634391
3.208009	1787824726395108096	0.003205373805521934	0.0005967721702808441	0.0013586752102142804	-0.06602301355587765	9.75389648035952	-0.029494384318904797
3.213762	1787824726401108224	0.001308808683420137	-0.00016585418582855513	0.0026787837616513667	-0.08276728008178041	9.786550582810337	-0.05066570136338739
3.217767	1787824726407108352	-0.0015359694489583736	0.000612940623841901	0.000743650250437678	-0.09201534184123657	9.791621440102565	-0.01978865100952236
3.225010	1787824726413108224	0.0018464876090898072	0.0013117619987461028	-0.0007574341906650179	0.024469381586189685	9.855781321405964	-0.045047768567069636
3.227833	1787824726416108032	-0.0038795242088762853	0.0007100289379166537	-0.0014857942967326484	-0.03477063387407362	9.699855285602524	-0.0027724175798392505
3.231480	1787824726419108096	0.0017641268868449226	-0.0013363240672312647	0.002561371240369569	-0.05490961472865613	9.800425833404146	-0.008932231592815011
3.238674	1787824726428108288	0.0008933502659925491	0.0010329923166286013	-0.001205899626066908	-0.08018350658367351	9.79607439250661	0.07649511835110887
3.242290	1787824726431108352	-0.0023870460676966715	0.00184983499117907	-0.002103590695753325	-0.0025278017146688897	9.823196236773777	-0.06897998626470823
3.246386	1787824726434108160	0.0010528241315853636	0.0028676228722992084	-0.0027953352035828714	-0.045777836000117825	9.778899564406638	-0.0020614339184036063
3.252614	1787824726440108288	-0.0008678046167195039	0.0004345627042582037	0.003118185315597354	0.015764425991196283	9.786246698201879	0.06700797930962163
3.255989	1787824726443108352	0.0021920867571591654	-0.004105159320893944	-0.0020870126827423037	-0.0492856489741811	9.830132835742832	0.07400998334822123
3.261397	1787824726449108224	0.0010547517232371102	0.0008040078321272033	8.808253183937509e-05	-0.13835471964309942	9.858179797435781	-0.0213963864450882
3.267774	1787824726455108096	-0.0014022733281806553	-0.0014228966189948954	1.9489433153732174e-05	-0.036094154652394586	9.775391888307063	-0.013432295165749751
3.272790	1787824726461108224	0.0008328258407558456	0.0023733343339347106	-8.277163496061447e-05	-0.08597989464062197	9.827322141819277	-0.043119219086213224
3.276352	1787824726464108288	-0.0007460391190030883	0.00011794748369414699	-0.0013182461174341608	-0.0021342079458278804	9.716712478193848	0.09835304798575363
3.281518	1787824726470108160	0.0018551642344255622	0.003581649587229316	-0.0006628505219686804	-0.14766730538003398	9.817515467097815	0.03757070129790968
3.287363	1787824726476108288	0.0005219369875060026	0.00020401685903192004	0.0001615483438050046	-0.06202389740621042	9.697236271584927	-0.023246190230839348
3.293587	1787824726482108160	0.0009457896941543943	0.0009409161553805128	-0.0004879595641929042	-0.07668678727862889	9.758843885170997	-0.020694925478934242
3.296397	1787824726485108224	-0.0001692935859409978	-0.0010764037711395653	-0.0018765900326348248	-0.06819329021030751	9.752083052693093	-0.05592338405859547
3.302455	1787824726491108096	0.0012985550978613042	0.0007410014953224784	-0.0015167292798284435	-0.060023034202146816	9.765402755412133	-0.0304534687199991
3.307575	1787824726497108224	-0.0008751120532594076	0.00048139311208703496	-0.0003227827988393288	-0.053862488167718846	9.823021644612798	-0.012047138312629449
3.313170	1787824726500108288	-0.002141848180299977	0.001945796036097991	0.0012167120349256474	-0.0851121458656815	9.763395083130417	-0.0540613835766007
3.316663	1787824726506108160	0.002713855260735262	0.00021177961514156886	-0.0016387273339982162	-0.045578503521319196	9.784301675790507	-0.0001054003769477424
3.319759	1787824726509108224	-0.003288159239361385	0.00019601040140911113	0.0006488988829599933	-0.09429430263730848	9.795906827478587	0.05643155686797686
3.326703	1787824726515108096	0.003988666370136724	-0.001438929892675629	0.0012688540033213124	-0.02795951748916719	9.760610558594534	-0.041639353267157196
3.333847	1787824726521108224	5.998638199134957e-05	0.0005619864227372006	-0.00012519647174638252	-0.0543229457738883	9.679613071753131	0.08690369819052803
3.337266	1787824726524108288	-0.002110082510754149	0.0012716696152875215	-0.0014666426638710584	-0.08041214100654437	9.826771816265465	-0.007519911936987055
3.343968	1787824726533108224	-0.0021976483929368068	0.00010248881286670212	-0.0006449942307575325	-0.07291192837869279	9.874086801778006	0.08641790332300214
3.346926	1787824726536108288	0.000756171757258308	0.0016120051059516304	0.0013976234658264327	-0.05326849062840651	9.748332294716448	-0.0004197621082860682
3.349985	1787824726539108352	0.0005304257462871112	0.00048551558339837025	-0.001421943110008963	-0.10464749186830011	9.715134220858081	0.008907755252787187
3.356133	1787824726545108224	0.0025219007299183134	0.00028753512024360316	0.00035497427031577577	-0.034396185224477856	9.8284750098738	0.05312878727902448
3.362894	1787824726551108096	-0.0013276383344825134	0.0023753086433166526	0.0001252860319568396	-0.01174067585223331	9.788452475836136	0.05673761235207992
3.368313	1787824726557108224	-0.00034184837532824094	0.002952052342102804	0.0025908011478370783	-0.016678171534192432	9.785389808886746	0.0129258837022672
3.371904	1787824726560108288	-0.0001573363980161597	0.0014756758911559679	0.00021842685577057148	-0.052986022757647265	9.814860766596128	-0.0060719066773188
3.375701	1787824726563108096	-0.001851585039209358	0.0018000138786061182	0.0017022841048271006	0.0029244325342700703	9.811409727657493	0.09283381770173478
3.382457	1787824726569108224	0.0014890397895121852	-0.0014288462264725077	0.0006557476258659972	-0.049687021800066726	9.743880319064443	-0.023214635391717253
3.386238	1787824726575108352	0.002213254237301963	0.0007173034859769297	0.00349077185414671	-0.10671110511536427	9.793858874381572	0.027829155104217046
3.391269	1787824726578108416	-7.234614023398504e-05	-0.0023015918398704214	-0.001921518013850041	-0.03240741111143479	9.77088521487694	0.009068655260747724
3.395632	1787824726584108032	0.001992524722250613	-0.0010610094126605695	-0.00032608911263869823	-0.01808797871475236	9.825904823225509	-0.03268797780703143
3.403640	1787824726593108224	0.0003805077247671702	0.001960814206199929	-0.002205776684676213	-0.014282987449091449	9.792080412389321	-0.08518602239606757
3.406529	1787824726596108288	-0.003263378878521818	-0.0017044855978948623	0.002362181042707894	-0.06778125314245106	9.782865610989928	-0.0255191069533406
3.414121	1787824726602108160	-0.0005188599273056128	0.0014318163123902166	0.0030847583505070764	-0.04557959470537164	9.854755109122845	-0.04784196480654906
3.414725	1787824726602108160	0.0021570429737885633	-0.00017028615405982307	0.001019795037261673	-0.0045425918989996095	9.783334248125602	-0.007092698229673521
3.420447	1787824726608108288	-0.002198412197290116	0.0013913598052946172	0.002266107146149159	-0.04884745986069249	9.808171424141534	0.026370236874546992
3.428442	1787824726617108224	0.0036240001302738616	8.468103007764559e-05	0.0019466080816126694	-0.07029770868727026	9.818088338511103	-0.07909277798854857
3.430612	1787824726620108032	-0.0007458327869960137	-0.001029491631759429	0.00036368708285625914	-0.01857808567639891	9.786607290327948	-0.00936391361638634
3.437353	1787824726626108160	-0.0011723421376376264	-0.0013199078529514767	-5.606401362072682e-05	-0.009922137524928591	9.756872614561113	0.03344200468286879
3.443484	1787824726632108288	0.0001920411440295526	0.0006634393381228619	-0.00037285381362469526	-0.040838505268483136	9.720391551833545	0.05185106086966033
3.448365	1787824726635108352	-0.0002087149542055731	-0.002449945504487453	0.00021568629761979782	-0.13226342788485415	9.736628505233599	0.10546331336850995
3.452746	1787824726641108224	0.0015533849683745937	-0.0011081832562549754	0.0007476597137019167	-0.031820969988007014	9.789257723448847	0.040029319484104625
3.459359	1787824726647108352	0.0004838348208585047	-0.0013656485934272452	0.006363024482856881	-0.06412845289395142	9.76542476903129	0.010477331021507169
3.463329	1787824726650108160	-0.0025619452195138363	0.00012774698297299148	0.0008089871371774988	-0.057020418667245984	9.776808718618717	-0.043499689933602224
3.466531	1787824726656108032	-3.0136042645886426e-05	0.0034158489809853095	0.0009758933143892854	-0.1491814950072091	9.756859040729664	0.0014236833425722156
3.474268	1787824726662108160	0.0007174076406075521	0.0020305174430723734	0.0021946648480261326	0.03096975831693078	9.839840297120293	0.00041570791222881286
3.478008	1787824726665108224	-0.0003962030474014959	0.0007886142524964406	0.003344606482851411	-0.0851642550692972	9.894149766893957	0.08201881696622446
3.482745	1787824726671108352	-0.0006043454093346538	0.0013552734425846154	-0.0005418136080037701	-0.014576577169387157	9.782807309206294	-0.04582566388999759
3.486211	1787824726674108160	0.00391319383815185	0.0027175802674288033	-0.00027150338696049265	-0.03824214814422027	9.807299475045271	-0.06085303377720078
3.492592	1787824726680108288	-0.00048775403372444974	0.004426277729821568	0.0032119032813952043	-0.07295309638113945	9.76389799648764	-0.009951984663027182
3.498099	1787824726686108160	0.0015430826323066652	0.0018055632709352296	0.00011262050061732704	-0.037400946786053615	9.804976395144932	0.008567157656442548
3.501957	1787824726689108224	0.002376591315915814	0.0013404038520443467	-0.001031796119666731	-0.041079442951755245	9.803924258102393	-0.013892042134590943
3.512048	1787824726701108224	0.0009524841573692681	-0.0003923770818497696	0.0006011212540388266	0.004576302800424488	9.767293589725286	-0.005733381815369171
3.513336	1787824726701108224	-0.00044355410990355607	-0.0009665989203815324	0.002528486023470065	-0.07288399540076546	9.801310573904729	0.022610664489934824
3.519185	1787824726707108352	0.0008205444545370881	-0.002485731047412782	-0.001304224944624043	-0.0694540652372838	9.860641637027095	-0.0362629291904392
3.522579	1787824726710108160	-0.00043347322334652804	-0.002006477884980998	-8.984983624249516e-05	-0.09161935327918275	9.725608734085373	-0.03312187997463151
3.529773	1787824726719108096	0.0013389516389048209	-0.0038072284142213605	-0.0015716779991407487	-0.035874803644369874	9.789334568077305	0.030689416552090835
3.532169	1787824726719108096	-3.107834850517577e-05	-0.0020341966898760567	0.001285704757192894	-0.02186039174245291	9.83121290321016	0.005776491896806587
3.537988	1787824726725108224	0.0009306739622622551	0.003151027975549117	-0.0022514355760670005	-0.05679527460924339	9.824122301530544	0.01896218406409049
3.541173	1787824726728108288	0.0020073540377411572	-0.0019642426332154308	-0.0006818932982200993	-0.05619317243456115	9.79207433089238	0.06544428409627379
3.548701	1787824726737108224	-0.0036662932705469184	0.0016278065500527526	0.0007225380703830924	-0.03987532183413462	9.76091509019894	-0.05079693262315683
3.550738	1787824726740108288	0.0006878975379227442	-0.004062991120573478	-0.00013173270563168534	-0.037824696223272045	9.809937356370684	-0.020294506266499566
3.560281	1787824726749108224	0.0013867142089867281	-0.0017613349090758548	0.0005580154157938206	-0.008812265258462251	9.846038676776066	-0.0012876969868851253
3.561644	1787824726749108224	-0.001636765496597196	-0.0007999873935566318	-0.001500800302004565	-0.037624484658042814	9.806983179982767	0.050731001388165387
3.568041	1787824726755108096	-0.0030199582643332334	-0.0011523592683270638	-0.0003333198114458482	-0.09210996309694061	9.754725125858302	-0.01842513144607509
3.572690	1787824726761108224	-0.002334889974852866	-0.0013060005956272384	-0.0018748233624723905	-0.06383450045132516	9.814057688693158	0.03922419060270771
3.578524	1787824726767108096	-0.0029393330668795216	-0.0013741863426579577	0.001006836795858321	-0.040113695900655735	9.882977233695346	-0.038102557129348
3.582997	1787824726770108160	0.0021374162219784058	-0.0019204277308698535	-0.0035629022473087574	-0.12114047989654261	9.789962572316309	0.052383260605287967
3.586441	1787824726773108224	-0.0040519883263572835	0.002219917671286141	0.0020248374301898883	-0.03515044675638996	9.76055617151776	0.014867491947521308
3.592060	1787824726779108352	-0.0006813491760259259	0.0007891904918165644	-0.0015642380434391727	-0.05540485000649607	9.800387053917655	-0.016674643425017545
3.595711	1787824726785107968	-0.0011024485593717887	0.0011170988791448942	0.0007107858681289464	-0.013825637123082345	9.861428739470584	-0.01760528050358393
3.604217	1787824726791108096	0.0025541845583422866	-0.0027742446571188475	0.001420030804790929	0.031041876254021217	9.770190322391917	0.0247755764048308
3.609116	1787824726797108224	0.004128958014553712	-0.0013725555891308456	0.000829215901435919	-0.0075341584192673006	9.772360940884862	0.012667847732233697
3.611514	1787824726800108288	-0.0025276969227186466	0.001107510128591268	0.001512846906562425	-0.029908428983933387	9.828662352061814	0.016102643426490655
3.617589	1787824726806108160	0.0011722081138025116	0.002106731429439036	-0.0013074185211958997	-0.05960242713955022	9.82496543204255	0.0436104844193261
3.625856	1787824726815108352	0.0011644925682791588	0.0010749677774571469	-0.004026440618516995	-0.027208951476916227	9.806233529485933	-0.040015959254204626
3.626356	1787824726815108352	0.0032127996323563926	-0.0017401121110837505	-0.0008538270880755772	-0.06784535448262638	9.796384040925112	-0.007843617380714308
3.631437	1787824726818108416	2.7211939063481836e-05	0.0015410893999530794	5.986436359006751e-05	-0.008696665198292812	9.784163738676341	-0.00852986644123389
3.639248	1787824726827108096	-0.0028568252789711174	-0.0007912074403013928	0.0015223408496494258	-0.02893595541842146	9.71593910788388	0.009335646402064
3.642908	1787824726830108160	0.00024792724559764525	0.0014618621497924876	0.001590088802970775	-0.06987573637904616	9.7113393116098	0.02895889292548928
3.646733	1787824726836108288	0.001163624822455279	-0.0010745807472580967	0.0015392952043839978	-0.12571471888190006	9.815129900751769	0.01228708969566749
3.653143	1787824726842108160	0.001516763174736719	-0.0010305881529347235	-0.00017455989347852242	-0.028932262714495526	9.762376482621997	0.09741183499023172
3.657795	1787824726845108224	-0.001043227358944686	0.0022116425353225	-0.00040628848949778273	-0.051128759188509024	9.802062821519854	0.017302292512266036
3.661749	1787824726851108352	0.0011009511118983408	0.0009960191676113561	-0.0009270672475852303	-0.056731263483949114	9.762832440909955	0.03360442647981622
3.666997	1787824726854108160	-0.0007726422563899795	-0.0019619757252623536	-0.002315238181655537	0.03955844534099784	9.758353316429563	0.02397376030192519
3.671616	1787824726860108032	0.0016831541880014441	0.003078593987138319	0.0005742343941609526	-0.06914853802891774	9.746761993151026	0.013897568491615128
3.676163	1787824726863108096	0.003391051484724379	0.0021323418336785934	0.0012728730680167074	-0.03279489426723976	9.817862518315708	-0.01467174059580477
3.682814	1787824726872108288	0.001747890040508228	0.0021574317359150694	0.000632823471066426	-0.015615193974332718	9.76307559882489	0.00833887781983047
3.687316	1787824726875108352	0.00291476093304384	0.0006625652501920384	-4.936973893967618e-05	-0.01616203281595223	9.823003814158575	0.014126494277974872
3.689501	1787824726878108160	0.002056236973093535	-0.0013664122324229641	-7.458042148889872e-05	-0.11958022968239668	9.794938240631083	-0.0068597470507058556
3.697706	1787824726887108096	-0.0010304319474064082	0.0005812075581620558	-2.8423732852216546e-05	0.02752736652510345	9.763946553508973	0.06609098756901888
3.701401	1787824726890108160	-0.0007588153001463421	0.0002596902045240546	0.0002547816255502235	-0.025082306977554078	9.797514848866125	-0.022311739730187942
3.707325	1787824726896108032	-0.0006342103321900218	0.001990181733184236	0.0028834363477359968	-0.033790902277895433	9.784073827144944	0.03686219994876502
3.713179	1787824726902108160	0.0012440360601345389	0.0012377914983494297	-0.000999099443243543	-0.03416524338833289	9.77160797347179	-0.023593893338737536
3.717496	1787824726905108224	0.0016755210634276905	-0.0006677114421935041	0.0028841816286842917	-0.036859271878581804	9.789582680097356	-0.040158719070403234
3.722769	1787824726911108352	-0.0018878012958964384	0.0012654051583168668	-0.000802984378411044	-0.07504166354830089	9.797704824144864	-0.015958811284218756
3.725998	1787824726914108160	0.0006159547952375579	0.0006405011354293495	0.0038792913809317523	-0.0419615639786297	9.79220281408108	0.03987237053744345
3.728924	1787824726917108224	-0.0010530383081735716	0.0022129613214271083	-2.648026844228925e-05	-0.036697388880766256	9.818258750586935	-0.08281482057926623
3.736895	1787824726926108160	0.00037044349433499056	0.0007125858356744446	-0.0007657595854547113	-0.06877267415251379	9.729251105965997	0.06186923307452229
3.744895	1787824726932108288	0.0029055523309227753	0.0009697947228998812	-0.00040429737292784477	-0.039643194040962434	9.786951248134285	-0.03810626539564581
3.748857	1787824726938108160	0.0011801421816599012	0.0012152934521302105	-0.0026715671210137994	-0.042774686801517775	9.801726567275693	0.015889138902727747
3.752178	1787824726941108224	-0.0001567954609958862	0.0014015669558532604	-0.0009284733325271466	-0.08943950814390947	9.725891137156784	0.026228912196806183
3.757648	1787824726947108352	-0.0002804461896749837	-0.0011291149807024353	-0.0009348977433205336	-0.014866044670779531	9.805037005186623	-0.007052920729368993
3.761249	1787824726950108416	-0.0008522819567054026	-0.0026104473624285335	-0.000588639719390844	-0.029051962127415946	9.837818033367384	0.012961840533871321
3.764341	1787824726953108224	-0.0023684829500809595	-0.0014159459937101721	-0.0006002327286723179	-0.10081847272204922	9.82629629331374	0.010543818097089262
3.770869	1787824726959108096	-0.002041228046196572	-0.0019899073224732074	0.0010294099873345876	-0.05676985650344481	9.77645057259181	0.003194659535715816
3.775644	1787824726965108224	-0.00029456040050016333	0.0013185138884548237	-0.0008758466441950739	0.0306050850620092	9.710742989148224	-0.047796443616228354
3.782978	1787824726971108096	-0.0016262829338408113	-0.0006531099707673904	-0.0006442176131051623	0.06155094722236997	9.818897598039376	-0.0034845598338321838
3.788169	1787824726977108224	0.0010550402239751196	-0.00034393805292872847	-0.0013308029235545688	-0.06022061929994106	9.69148628398513	-0.028147916878647643
3.793741	1787824726983108352	0.00023870084716940342	0.00019661497713105772	-0.00344370886408137	0.03501986986449717	9.763719726844004	-0.004970103293833919
3.797093	1787824726986108416	-0.0006715317972376221	-0.0003547335575267139	-0.0025425493767598207	-0.13382763503824413	9.800857891181685	0.04726962701577646
3.801851	1787824726989108224	0.0009640249544854814	0.0020933994058670792	0.0006628893715183279	-0.04383699334548563	9.774920200000055	0.0861005910132771
3.806799	1787824726995108096	0.0012287774506866771	-0.0014484122796992796	-0.0019466709528577616	0.0019918475899117077	9.805547606865852	0.06059983915012698
3.813447	1787824727001108224	0.00038245656088372807	0.002339928705970237	-0.0017808011956986795	-0.08062247644479704	9.764134992878864	0.1406119429189388
3.818797	1787824727007108096	-0.0028613468925772012	0.0020027099516591504	0.0017821676590853357	0.020767144857649862	9.850995972875896	0.024378572126519556
3.822678	1787824727010108160	0.0014103778545223919	-0.0013114222158396298	0.0004017263614880128	-0.10216310154789107	9.7505797157754	0.024967794780673836
3.829167	1787824727016108288	0.0010822967593721747	-0.0012775981324643678	-0.002170074813270623	-0.04244710443985747	9.826667835673337	-0.018632784579822932
3.836034	1787824727025108224	0.0009380601708531264	-0.002021582140707917	-0.0002011424714678614	0.0026673400723842278	9.819971526178474	-0.025989998934795894
3.836737	1787824727025108224	-0.00042576234320997394	-0.0017485058739883156	0.0005744157907992318	-0.048788119737013164	9.795882008980543	0.006720514807393097
3.842169	1787824727031108096	-3.4875201284286474e-05	0.0014980348539691928	0.0002925037587172043	-0.025689763313207492	9.784540663393418	-0.014028575257531754
3.844863	1787824727034108160	0.0005154392370476969	-0.002608761103665299	-0.0036082117245100336	0.003949086795349145	9.723191279352681	-0.01662193311216998
3.850619	1787824727040108288	0.002515292717091653	-0.0009635761228657129	4.576901253096353e-05	-0.057770691768753366	9.761598868037503	-0.025052893325792927
