#timestamp [ns]	w_RS_S_x [rad s^-1]	w_RS_S_y [rad s^-1]	w_RS_S_z [rad s^-1]	a_RS_S_x [m s^-2]	a_RS_S_y [m s^-2]	a_RS_S_z [m s^-2]
00:00:00.006000128	0.0006007137428423058	-0.0010709548369050026	-0.0006166365346871316	-0.06237608194351196	9.425310134887695	-0.05388564243912697
00:00:00.258005504	-0.0005836711646517886	-0.0018258909741171345	-0.0027147431392222643	-0.027761176228523254	9.979169845581055	-0.039562106132507324
00:00:00.297006336	-0.0015035977269983068	-0.00018821986040442142	0.00023863909882493317	-0.010919674299657345	9.952235221862793	0.0219234861433506
00:00:00.321006848	0.0012303193649748191	-0.0002167808753193066	-0.002183053642511368	-0.03807425871491432	10.022910118103027	0.030206987634301186
00:00:00.327006976	-0.0006898852446576728	0.0005258191912680223	-0.0019413995323702693	0.03461369499564171	10.013123512268066	-0.049756575375795364
00:00:00.333007104	-0.0012661458607291952	0.0019189125113434448	0.000852002005558461	0.04802030697464943	9.932183265686035	0.015468336641788483
00:00:00.585012480	0.00022929614321383102	0.0016303089168167963	0.00030108066857792437	-0.013318976387381554	9.930644989013672	-0.04440326988697052
00:00:00.591012608	0.001377898719208859	0.002726105386415805	0.0012071410892531276	-0.010496499016880989	9.986867904663086	-0.03132837265729904
00:00:00.600012800	-0.0010524178072339073	-0.0013434591283776507	-0.0017929093446582556	-0.0172357689589262	9.90909194946289	-0.04321269318461418
00:00:00.606012928	0.00031518311849849684	0.0010546487709752574	-0.0018893680535256863	0.07844153791666031	9.91025161743164	-0.04384130984544754
00:00:00.612013056	-0.0029486175775056854	0.0003543084266375109	0.0012184077640995383	-0.009957949630916119	9.910908699035645	-0.008754592388868332
00:00:00.618013184	0.00032305561732555194	-0.0014200479537003383	-0.00023818350746296346	-0.0695766732096672	9.922710418701172	0.022004766389727592
00:00:00.858018304	-0.000479538648807831	0.002023120289692964	-0.0033405947033315897	-0.021264247596263885	9.885322570800781	-0.03369881585240364
00:00:00.864018432	-5.389198516441125e-05	-0.0016612360533081636	0.002074871212244034	0.09189315140247345	9.814784049987793	0.04331529885530472
00:00:00.870018560	-1.585310413447757e-05	0.0010273113684042647	-0.00038491346640512347	-0.0017805753741413355	9.809060096740723	0.033597320318222046
00:00:00.885018880	0.0034525287189060673	0.001158142923401977	-0.002094113966450095	-0.019243264570832253	9.838574409484863	0.008605949580669403
00:00:00.891019008	-0.0020754714644974246	-0.0022709748055540664	0.0011854866752400994	-0.0828225314617157	9.869965553283691	-0.06955161690711975
00:00:00.897019136	-0.0016524546229740754	0.0005208771571296557	-0.002376500517129898	-0.001547701540403068	9.843160629272461	0.07259055972099304
00:00:01.131024128	0.003120443070354484	-0.0016253696568065033	0.00020340087939985096	0.027336062863469124	9.809150695800781	0.06489215046167374
00:00:01.137024256	-0.0006752375196194424	-0.0008923360192903027	0.0037418631836771965	-0.10555465519428253	9.76733112335205	0.05096714198589325
00:00:01.143024384	0.0033338917270773873	0.0009345034440293267	-0.0007293203962035477	0.031641747802495956	9.908464431762695	0.03451242297887802
00:00:01.149024512	0.0005013851474976019	0.0002344024059375107	-0.0010335879633203149	0.0008740925113670528	9.924365043640137	-0.04955120012164116
00:00:01.161024768	0.003096745567443393	0.0002254225209134921	-0.0009349965257570148	0.03387123718857765	9.77627944946289	-0.01678096316754818
00:00:01.404029952	0.0003114981370052175	0.0010786264855659857	0.00084606499876827	-0.032163139432668686	9.795132637023926	-0.03272567316889763
00:00:01.416030208	-0.001556188814294912	-0.001353641045255278	-0.0004255411331541836	0.04132460430264473	9.83263111114502	-0.01229920145124197
00:00:01.425030400	0.0007200221731798576	0.0017529348796478763	-0.0022040572948753834	-0.0061983997002244	9.80815315246582	0.003301984630525112
00:00:01.434030592	0.0025856175777042136	0.0010637653712428465	0.0003934385604225099	0.021078508347272873	9.825235366821289	-0.09559131413698196
00:00:01.440030720	0.0007540203365968393	-0.0005521540343516216	0.0010843188501894474	0.0033142247702926397	9.774206161499023	-0.050021614879369736
00:00:01.446030848	0.0007659924300858603	-0.002000057725211297	0.0021014439407736063	-0.08922560513019562	9.804627418518066	-0.04063010215759277
00:00:01.665035520	-0.004291510224295236	-0.0005592008866124496	0.001124944887124002	0.07883308082818985	9.786544799804688	0.04395976662635803
00:00:01.671035648	0.00020398588064181073	-0.0009174024499707565	-0.0036294523160904646	-0.0194840244948864	9.746809005737305	-0.020899178460240364
00:00:01.677035776	-0.00025666038012077646	-0.0007259556487888739	-0.0001132209727074951	0.06285026669502258	9.755803108215332	0.02441025711596012
00:00:01.686035968	0.0031847825590992198	0.0010005512112065509	0.001229186076670885	0.0692044198513031	9.785101890563965	0.07747555524110794
00:00:01.692036096	-0.0009544679345091953	-0.0013237108988442168	-0.00024617192684672773	-0.0624556764960289	9.788582801818848	0.00888792984187603
00:00:01.941041408	0.0007947321134159194	-0.003843226358269964	0.0015611599665135145	0.08440480381250381	9.795034408569336	0.006634166929870844
00:00:01.959041792	0.0010763497408950553	-0.00021095379369675074	0.00033331880695186555	-0.049236662685871124	9.82381534576416	0.03584256395697594
00:00:01.974042112	0.000402063407516651	0.0022015381790942805	0.0007731136865913868	0.02300850860774517	9.764545440673828	0.014414247125387192
00:00:01.983042304	0.00019993285210857554	0.00032685879969627705	0.0006175919552333653	0.03699285909533501	9.76204776763916	0.026847492903470993
00:00:02.235047680	-0.002206386314657904	-0.000975988111434196	0.0017510490724816918	-0.009115259163081646	9.817948341369629	-0.014115923084318638
00:00:02.241047808	-0.000894204495427586	-7.604768788318042e-05	-0.0006584583315998316	0.060115110129117966	9.802785873413086	0.02637115679681301
00:00:02.250048000	-0.0007549705481616928	-0.0020732892490678174	0.00042657210724428296	0.04969163239002228	9.811692237854004	0.0413675531744957
00:00:02.259048192	-0.0015559781025624051	0.0020714617520815985	-0.003137005493044853	0.029841532930731773	9.853289604187012	0.018672078847885132
00:00:02.268048384	-0.0005010806638276352	-0.0009521745424472437	0.000804490118753165	0.015477514825761318	9.841524124145508	-0.003570885630324483
00:00:02.271048448	0.001314236069145225	-0.00039552519328302596	0.0005124552990309894	0.07678210735321045	9.658909797668457	0.03281109780073166
00:00:02.535054080	-0.0021469122878736034	0.000453154493613477	0.0026389462873339653	-0.026442915201187134	9.725102424621582	-0.03949783369898796
00:00:02.541054208	0.0010427738158503399	-8.815798091112528e-05	0.0005762034561485052	-0.028022797778248787	9.805438041687012	-0.030620358884334564
00:00:02.550054400	-0.0008693019775202646	-0.0014208343391992793	-0.0008558453409932554	-0.019575467333197594	9.845420837402344	-0.0069629354402422905
00:00:02.556054528	-0.001203601379831709	0.0012875015335402742	0.001200611237436533	0.041983865201473236	9.82227611541748	-0.0018923846073448658
00:00:02.559054592	-0.00032794369356652336	-0.0012003675848000393	-0.0018642916111275554	-0.004375465679913759	9.857311248779297	0.03160582482814789
00:00:02.565054720	0.001784167004796289	-0.0005364873842091009	-0.0026319727767258883	-0.034918881952762604	9.770879745483398	0.020285174250602722
00:00:02.826060288	0.004195120636420868	-0.002287215208610211	-0.0006183417863212526	0.06117366999387741	9.762909889221191	-0.01299966312944889
00:00:02.829060352	0.0024110968076163754	-0.002660002214809571	0.00019908933609258384	0.09187564253807068	9.775128364562988	-0.04267476499080658
00:00:02.844060672	-0.0013658441751724258	-0.0013098283717163548	4.416012961883098e-05	-0.013758227229118347	9.832075119018555	0.02445119246840477
00:00:02.850060800	-0.0032684754263138547	0.0006970060593693807	0.0014118871185928583	-0.04217526689171791	9.775811195373535	0.009004425257444382
00:00:03.102066176	-0.002915253411931373	0.0005757636926382139	-0.00017780016059987247	0.003096327418461442	9.790510177612305	-0.008597509004175663
00:00:03.108066304	-0.0008518068501254691	-0.0012306195031606302	-0.0006738523952662945	-0.012650853022933006	9.793744087219238	-0.0006468921201303601
00:00:03.114066432	0.0020296813305938468	-0.0022556142695002897	-0.001327640493400395	0.04859406128525734	9.771791458129883	-0.025209005922079086
00:00:03.126066688	-0.0017186140324449315	-6.236857470233816e-05	0.0012128212256357074	-0.02971106581389904	9.793230056762695	0.033926110714673996
00:00:03.132066816	0.00018611960664911581	-0.002082517258798395	3.6529049793898594e-06	0.026202665641903877	9.748732566833496	-0.017746780067682266
00:00:03.366071808	0.0004112359744502084	0.001410583611602272	-0.00047795195132493973	-0.006189490202814341	9.732093811035156	0.010135325603187084
00:00:03.372071936	-0.0006004599420813991	-0.002855807663848315	0.001565071172080934	-0.01967472955584526	9.718501091003418	0.023332560434937477
00:00:03.375072000	-0.0016356209674379006	-0.0016609543282293424	-0.0018442197469994426	0.02829120308160782	9.798001289367676	-0.03848297894001007
00:00:03.387072256	0.0006881591249728428	-0.0005687751155101404	-0.00027507523191161454	0.059074923396110535	9.84398078918457	-0.0007331992965191603
00:00:03.393072384	0.0005287695527547823	0.00043767282741733935	-0.0001405491930199787	-0.02528805285692215	9.783482551574707	0.03659413009881973
00:00:03.630077440	0.001140956286388062	0.002409556759545888	0.0004163578269071877	-0.03840235248208046	9.78839111328125	-0.052420854568481445
00:00:03.636077568	0.004358840625780247	-0.0005636946344502911	0.0010443145874887705	-0.031006615608930588	9.858087539672852	0.04761861264705658
00:00:03.648077824	0.0010676506059715376	-0.00024431682422167513	0.0009226033580489457	-0.036557167768478394	9.922207832336426	-0.01270531676709652
00:00:03.660078080	0.001954211955005847	0.0023192051984614985	-0.0007261401624418795	-0.05043172463774681	9.870540618896484	-0.010144798085093498
00:00:03.666078208	-0.00013327162044534074	-0.0015993475727491722	-0.0010142701212316751	-0.03168926760554314	9.7893705368042	-0.06093800067901611
00:00:03.672078336	-0.0010209987088566795	-0.0007280131731868431	-0.0006543128984048963	-0.03985084593296051	9.77396011352539	0.022207487374544144
00:00:03.891083008	-0.000910840244916655	0.0014326830813906446	-0.0031815492548048496	0.03725232556462288	9.791011810302734	-0.006772669032216072
00:00:03.900083200	-0.0015615031737363115	0.002103515313962783	0.0022298272233456373	-0.007355848792940378	9.797693252563477	-0.045980263501405716
00:00:03.912083456	0.000973204485187851	0.0004079115123267576	-0.0013657606905326247	-0.0017040460370481014	9.788590431213379	0.050758279860019684
00:00:03.918083584	0.0011845105179125294	-0.0005545647628360138	-7.731301593594253e-05	0.018856361508369446	9.844661712646484	0.0029328656382858753
00:00:03.924083712	0.0032098691296303496	0.0012836718186981335	0.0002597904240246862	0.034780215471982956	9.774842262268066	0.08108717203140259
00:00:03.927083776	-0.0005557820698706581	0.0015518461540586605	-0.004184908699244261	0.015095784328877926	9.918251037597656	0.0059755644761025906
00:00:04.158088704	-0.0024169318060850873	0.003273431323493208	-0.0015917085111141205	-0.08380695432424545	12.137502670288086	0.05909378081560135
00:00:04.161088768	0.00013477134750046222	0.0020279252156860487	0.0018127671210095286	-0.08182694762945175	12.116175651550293	0.036161549389362335
00:00:04.182089216	0.001762264858978413	-0.0007172423694037542	-0.00092928676167503	0.01661635749042034	11.322332382202148	-0.012859356589615345
00:00:04.188089344	-0.0015493541871657744	0.0012497611996031657	-0.0019323132000863552	0.04139106348156929	11.13553524017334	-0.012399813160300255
00:00:04.407094016	-0.0010024820370128527	-0.0020354915223770483	8.379261998925358e-05	0.036807507276535034	9.995569229125977	-0.03592555969953537
00:00:04.413094144	-0.00012668412849252658	-0.0012433977145456419	0.0005620596348308027	0.01063294056802988	9.964815139770508	-0.04569074511528015
00:00:04.419094272	-0.004011843834025241	-0.0014387636957444892	-1.6873413187568076e-05	-0.017236491665244102	9.867761611938477	-0.043314311653375626
00:00:04.428094464	-0.0017153066731518283	-0.0010618028510116682	0.002015485428273678	-0.04480130225419998	9.837974548339844	-0.04073667526245117
00:00:04.434094592	-0.002664352549192883	-0.0002364298898947135	-3.801011189352721e-05	0.01771543174982071	9.918417930603027	0.08713508397340775
00:00:04.440094720	-0.0016435019354796186	-0.0015754378447063908	0.0016938571352511644	-0.01673647202551365	9.986023902893066	-0.0135146863758564
00:00:04.641099008	3.532571706999212e-06	-0.0009515136526652322	-0.0012694727629423141	0.024897869676351547	9.819245338439941	-0.04040245711803436
00:00:04.647099136	0.002599109647842668	-0.0008113814447761223	0.0032833570148795843	0.037523094564676285	9.837644577026367	0.04585100710391998
00:00:04.650099200	0.0015275041657039747	0.0009626016207284584	-0.0005311874556355178	-0.03254428878426552	9.786276817321777	0.060113731771707535
00:00:04.656099328	0.0021421513371640668	0.000498320407957147	0.0005780957289971411	0.05123117193579674	9.867559432983398	0.06749847531318665
00:00:04.662099456	-0.000408199572422929	-0.0019131916388624058	-0.0025355725083500147	0.006201849784702063	9.808679580688477	0.017701666802167892
00:00:04.668099584	-0.00031712949597222345	0.000931047073124285	-0.0003258067590650171	0.05514766648411751	9.80388069152832	-0.04920370131731033
00:00:04.674099712	0.00335902626072111	-0.0017706222180031881	0.0003167011891491711	-0.025470132008194923	9.860235214233398	-0.024912221357226372
00:00:04.860103680	-0.00029575340188985305	0.0004993422143406525	-0.0004706015170086175	0.03557612746953964	9.837181091308594	0.004454236477613449
00:00:04.869103872	-0.00041047866428216534	0.0019495477853588119	0.0018596500158309937	-0.012121363542973995	9.86307144165039	0.02411152422428131
00:00:04.878104064	-0.0019093342273956313	0.00039193735111163106	-0.003818763419985771	-0.08827923983335495	9.888230323791504	0.03907168284058571
00:00:05.073108224	-3.642691475052002e-05	-0.000987666314443265	0.00024155247956514359	0.04385622963309288	9.7710599899292	-0.018382515758275986
00:00:05.088108544	0.0024655358717316613	0.001416471549334313	2.9280728995217942e-05	-0.022990459576249123	9.76605224609375	-0.01670181006193161
00:00:05.094108672	-0.0008588183703361227	-0.0003020545164809272	0.002165782731026411	0.040848053991794586	9.815180778503418	-0.0011644626501947641
00:00:05.100108800	0.0012430858184123263	-0.0009310852084063635	-0.00018446557805873454	0.03323255106806755	9.864331245422363	-0.021542120724916458
00:00:05.112109056	0.002818182561593674	0.0031676668394602196	-0.0002494779764674604	0.05302409827709198	9.923712730407715	0.03095577470958233
00:00:05.121109248	0.001373056773143433	-0.0029233963042252405	0.0005823830142617226	0.017911670729517937	9.740367889404297	0.024049684405326843
00:00:05.283112704	0.0005208136714534686	0.0031587049551553385	0.002537678461521864	-0.0030637311283499002	9.788643836975098	0.07153187692165375
00:00:05.289112832	-0.0008299917829683198	0.004254294205481495	0.0003750131872948259	0.05558529496192932	9.81197738647461	0.023975994437932968
00:00:05.295112960	-0.0010526148983737603	0.0028058587294317143	-0.0018322094110772014	-0.047901444137096405	9.769301414489746	0.08018065243959427
00:00:05.301113088	-0.0031914657596027627	-0.0006308788479991898	0.001030476181767881	-0.05109553411602974	9.773229598999023	0.004582176450639963
00:00:05.307113216	-0.0009684470863541736	0.003827376402939047	0.00033502161386422813	-0.038893382996320724	9.855466842651367	-0.005228125490248203
00:00:05.313113344	-0.0006127068339375927	0.0008983128308563783	0.00025507539976388216	-0.07571879774332047	9.853473663330078	-0.030385933816432953
00:00:05.319113472	0.001352921928326212	-0.0033658001385383947	-0.00029651279328390956	0.06074285879731178	9.780384063720703	-0.03440224006772041
00:00:05.493117184	0.0017240401208871827	-0.002662097690602456	0.003285373793914914	-0.012721564620733261	9.832711219787598	0.014751057140529156
00:00:05.499117312	-0.0015630712881213203	-0.00023464547584175024	0.0015777962980791926	-0.06356098502874374	9.777851104736328	-0.051773570477962494
00:00:05.511117568	0.0007369422088848279	-0.0019703005719684703	0.000617969548329711	0.046336736530065536	9.816512107849121	0.05733688175678253
00:00:05.517117696	0.00013267989531213803	-0.0009345279587187514	-2.274316557304701e-06	0.04868162050843239	9.815033912658691	-0.01515396498143673
00:00:05.526117888	-0.001667006654617764	-0.0035400810930632694	-0.0024312962777912617	0.005542865954339504	9.832311630249023	0.016822602599859238
00:00:05.703121664	0.0030384559501433596	-0.00032146848852156553	-0.0013304154854267836	0.012232083827257156	9.803511619567871	-0.043569549918174744
00:00:05.712121856	0.001558852949226819	0.0003362813394296273	0.00016103674715850502	-0.00771335931494832	9.809420585632324	-0.05494414269924164
00:00:05.724122112	0.000608790942049198	-0.001463916157347773	0.0016114203026518226	0.05784592404961586	9.789435386657715	-0.036312002688646317
00:00:05.733122304	-1.8056053097281486e-05	-0.000818160134343122	0.00011243263725191355	0.040534280240535736	9.832433700561523	0.056836407631635666
00:00:05.748122624	0.00017766840725725902	-0.0010749907279141888	0.002270507626235485	0.01249336265027523	9.80632209777832	0.05384969711303711
00:00:05.757122816	-0.0002846023565618469	-0.0018510153796278581	0.001770645729266107	0.003972308710217476	9.802106857299805	-0.019423959776759148
00:00:05.952126976	-0.004343288499814846	-0.0005410364293248102	0.00363590638153255	0.004127197433263063	9.89619255065918	0.03374873474240303
00:00:05.961127168	0.0016251855846965537	0.001115133282753016	0.002348794136196375	0.029715552926063538	9.798717498779297	-0.06458564102649689
00:00:05.970127360	-7.178511471666011e-05	0.0006827514688729599	-0.0004207641177345067	0.046044521033763885	9.832306861877441	0.037174537777900696
00:00:05.979127552	-0.00022967685102430718	0.0002444869705022603	-8.82243512023706e-06	-0.06227520853281021	9.805717468261719	-0.03601142019033432
00:00:05.985127680	-0.00178724726750461	0.0008311427617690816	-0.00040212241583503783	0.015755027532577515	9.818920135498047	-0.03063846379518509
00:00:06.165131520	0.003498494377406858	0.00013567127726397585	0.0012908270582556725	0.0531020350754261	9.851531982421875	0.005474334117025137
00:00:06.171131648	0.00047724680886658294	-0.0014547818619512663	-0.0003367695026099682	-0.05317072942852974	9.776833534240723	0.07854262739419937
00:00:06.177131776	-0.000513648279895462	0.0007436292316078499	0.0006824743468314409	-0.01792905665934086	9.835494995117188	0.009492194280028343
00:00:06.183131904	0.0028708830792927966	0.0010247196140944317	0.0005197834689170122	-0.0185080673545599	9.768938064575195	-0.03202570974826813
00:00:06.189132032	-0.0014323966027697697	-0.0005594911100097642	-0.0002692138950806111	0.014835547655820847	9.826217651367188	-0.0255700945854187
00:00:06.195132160	-4.834682507153216e-05	0.001077863499546732	0.0008105963352136314	-0.01574235036969185	9.814553260803223	-0.027500541880726814
00:00:06.201132288	0.002726098507689856	0.0010174204316235438	0.0011633989633992314	-0.05012083798646927	9.777362823486328	-0.028608357533812523
00:00:06.369135872	0.00012333394230863465	-0.0017966590868063912	-0.0013265613233670592	-0.031549058854579926	9.84724235534668	-0.056495390832424164
00:00:06.372135936	-0.0001889351700194328	-0.0008058458962232516	0.001124932779930532	-0.0036598381120711565	9.818963050842285	-0.029346706345677376
00:00:06.384136192	3.07595761731119e-05	0.0014790947269893542	-0.0009949896484613419	-0.028329817578196526	9.790902137756348	-0.0043327705934643745
00:00:06.579140352	-0.000987857362208344	0.001593517600583221	-0.003747356589883566	-0.05100008100271225	9.819780349731445	-0.046883512288331985
00:00:06.603140864	0.0019285814920911417	-0.00019818413883789334	-0.00039570496301166713	0.026297740638256073	9.75053882598877	-0.03535373508930206
00:00:06.627141376	-0.0012389649785583988	0.0013324913988135114	0.0011947022285312414	0.019399544224143028	9.76400375366211	0.03133011981844902
00:00:06.645141760	-0.0014951102351298705	-0.0005146337835804269	0.0017806757241487503	0.04801572114229202	9.751062393188477	0.07959068566560745
00:00:06.654141952	0.00018750384303329898	0.00103561463302591	0.0011883480474352837	-0.04518955200910568	9.702064514160156	0.0071147745475173
00:00:06.822145536	0.002495042033540629	-0.0016271137911581144	5.27892516402062e-05	-0.0014273988781496882	9.873358726501465	0.0020363470539450645
00:00:06.873146624	0.001382566275122188	0.00020051114088979658	0.0005999744753353298	0.05187676101922989	9.824759483337402	-0.031412240117788315
00:00:06.918147584	-0.000614487871946223	0.004534932430858101	0.0012214999878779054	-0.017605027183890343	9.784605979919434	0.04625273868441582
00:00:06.924147712	-0.0019837513248896375	-0.00046903087522244904	-0.0008676352445036173	-0.001173276687040925	9.779618263244629	0.005317971110343933
00:00:06.930147840	-0.002326779082370378	0.002154032113055076	-0.0009503493783995509	-0.046389784663915634	9.799735069274902	-0.03381187841296196
00:00:07.098151424	0.0009055849365429805	0.0020954316668457644	-0.0011554892407730222	-0.04722210392355919	9.826629638671875	0.0030571899842470884
00:00:07.110151680	0.0019594651964032874	-0.0010420660301797733	0.0020365985110402107	0.013294667936861515	9.716296195983887	-0.007610759232193232
00:00:07.128152064	-0.004365575049025394	0.0019581521582103627	0.0012810741318389773	0.07543572038412094	9.81157112121582	0.015390985645353794
00:00:07.143152384	-0.000974108014208652	-0.0005607195826933429	0.0016886406810954213	-0.04280810058116913	9.850090026855469	-0.036856427788734436
00:00:07.155152640	-0.0016070694112679139	-0.0014232428557925567	-0.003131977980956435	-0.04815737158060074	9.817205429077148	0.04160938411951065
00:00:07.338156544	-0.0007500785435078813	-0.0004916135850117252	-0.002816016087308526	0.0780717134475708	9.804749488830566	-0.006632891483604908
00:00:07.422158336	-0.002111395137337424	0.0013718048529944673	-0.0011885444400832057	-0.01789652369916439	9.795182228088379	0.01510161254554987
00:00:07.446158848	-0.00011836858205442864	2.9245477805455373e-05	-0.0021562729962170124	-0.0695200115442276	9.776751518249512	-0.025942612439393997
00:00:07.455159040	-0.0007610151227092518	0.00018860277023756053	0.001579783041961491	-0.024033566936850548	9.816652297973633	-0.034233495593070984
00:00:07.467159296	2.8685962813868306e-05	-0.00044038048244423125	-0.0004182366537861526	0.0786721482872963	9.741361618041992	-0.033192116767168045
00:00:07.641163008	0.0012800869150558338	-0.0012854193383582577	0.0003061478491872549	0.01025424525141716	9.819668769836426	-0.002851994941011071
00:00:07.650163200	-0.0005610162773629798	0.002420971514681663	-4.474016895983368e-05	0.010911187157034874	9.748202323913574	-0.028408164158463478
00:00:07.659163392	-0.0002149097711773737	-0.0014065811456867203	-0.000621579703874886	-0.05500784516334534	9.751469612121582	-0.017356498166918755
00:00:07.665163520	0.00032451692065278454	0.0010950826062134757	-0.002107316395267844	-0.08082421869039536	9.815987586975098	-0.017839763313531876
00:00:07.671163648	0.0016586246053228006	-0.0007447200524375484	-0.00011663367331493646	0.035241834819316864	9.755030632019043	0.03112977370619774
00:00:07.680163840	9.03557371819244e-05	-0.0012541660153993115	0.0005495761288329959	0.005769561044871807	9.837003707885742	-0.006611350458115339
00:00:07.839167232	0.001470063565346025	-0.0028122809063397987	0.0004487611004151404	-0.018366161733865738	9.738167762756348	-0.00684095686301589
00:00:07.848167424	0.0010547950948128328	-2.3604069695499568e-05	0.0025406114291399717	0.03309230878949165	9.875734329223633	0.0027307996060699224
00:00:07.854167552	0.0021573665868962035	-0.002548785302763496	0.0003372859791852534	0.0010593202896416187	9.791193008422852	-0.012011880986392498
00:00:07.857167616	0.002407599225687407	-0.0011205058591195092	-0.0007483821245841682	-0.07395273447036743	9.835406303405762	-0.12125325947999954
00:00:07.866167808	0.000300886472967066	0.0007189989509306207	0.00011869536683661863	-0.004416423849761486	9.775577545166016	0.024058151990175247
00:00:07.875168000	-0.0016156878703734055	0.00038034782747396376	0.0017249140655621886	-0.06135999411344528	9.809394836425781	-0.025306127965450287
00:00:08.043171584	-0.00015362873121576	0.0011035724263883486	-0.0025258369278162718	0.007326355203986168	9.786834716796875	-0.01150197722017765
00:00:08.052171776	-0.001036380199668385	-0.0010845104744412646	-0.0009633724694140255	0.008787563070654869	9.7886323928833	0.005162909161299467
00:00:08.061171968	0.0011354556624317393	-0.000250301619501476	0.0008848220459185541	-0.09988652169704437	9.80948543548584	0.0045743961818516254
00:00:08.067172096	0.00027200719311422123	0.001157364104898955	0.002007243689149618	0.10411614924669266	9.816883087158203	-0.0038911167066544294
00:00:08.076172288	0.00047892604167627556	-0.0013049828167759523	-0.003731408854946494	-0.010366720147430897	9.908303260803223	-0.09245998412370682
00:00:08.238175744	-0.002418921809596397	0.0007403822336591139	-0.0022972440347075462	-0.10855414718389511	9.871750831604004	-0.03381536155939102
00:00:08.241175808	0.0006030488145077453	0.003209867859283771	-0.0023597865365445614	0.008903581649065018	9.87818431854248	0.030583593994379044
00:00:08.247175936	0.0016313386001163945	-0.0022808307595305784	0.0008518968825228512	-0.020321616902947426	9.836225509643555	-0.0016440039034932852
00:00:08.253176064	0.0008697039881260918	0.0008983194665297225	-0.0009601246565580368	-0.057166825979948044	9.744843482971191	-0.02063397318124771
00:00:08.427179776	0.0023743379712575898	0.000806563238172169	0.001586060388945043	-0.020913803949952126	9.82880973815918	-0.04113573580980301
00:00:08.433179904	-0.0008954924563406183	-0.0003119799121969089	0.0012693358585238457	-0.0013355868868529797	9.770873069763184	-0.005267242901027203
00:00:08.439180032	-0.0046666963174468055	-0.0020072789676242216	0.0009556967997923493	-0.006098370999097824	9.811694145202637	0.012263523414731026
00:00:08.460180480	3.923499177089811e-05	-0.0012103070085623011	-0.0022082070354372263	-0.013951593078672886	9.824654579162598	-0.0015711869345977902
00:00:08.613183744	0.001904290503869377	0.0017595785856492176	-0.0011185046751052141	-0.0028436589054763317	9.812088966369629	0.03083687834441662
00:00:08.619183872	-0.0005430050226388647	0.0022422965802497523	-0.0009999714093282819	0.056270964443683624	9.766207695007324	-0.021485602483153343
00:00:08.625184000	0.00016559031761771454	0.0021526602749026673	-0.0002507405006326735	-0.11481663584709167	9.878861427307129	-0.006148105021566153
00:00:08.802187776	0.001016952024354212	0.0015104354778549924	0.0003039611328858882	0.06226329877972603	9.824189186096191	0.018013857305049896
00:00:08.808187904	0.0004034589070832209	0.0003761565557460591	0.0013853630516678095	-0.025697972625494003	9.807995796203613	0.014295218512415886
00:00:08.814188032	-0.0017612584782293215	-0.0025540433171891315	0.0006791310734115541	0.05986481159925461	9.815486907958984	-0.05444817245006561
00:00:08.982191616	-5.5063792690090716e-05	0.00225977657365271	-0.0010284464806318283	-0.015895619988441467	9.876473426818848	0.008851073682308197
00:00:08.988191744	0.00044137203046175106	0.00021221438774497356	0.0017061119433492422	0.03939436376094818	9.857460021972656	0.013672983273863792
00:00:09.003192064	-0.0003665455590928121	-0.00012049472306265387	0.00020042218966409564	-0.013824285939335823	9.621123313903809	-0.0029625040479004383
00:00:09.012192256	-0.0032719506565010324	-0.0010117418179043278	7.884311344241723e-06	0.0988258346915245	9.807497024536133	-0.025846239179372787
00:00:09.168195584	0.0016619164813781008	0.00018619742596180286	0.0010410883696749806	0.014090255834162235	9.84462833404541	0.0757053941488266
00:00:09.174195712	-0.0024985713101452365	-0.0019256590213381395	0.0007610577740706503	-0.002907395828515291	9.839924812316895	0.027330411598086357
00:00:09.180195840	0.0009098725128458665	0.00447647983210751	-0.0008130716159939766	-0.002790566999465227	9.843682289123535	0.0339047834277153
00:00:09.186195968	-0.00035381187656839924	-0.00014340218794408146	-0.002144651487469673	-0.06294263899326324	9.754119873046875	0.09015865623950958
00:00:09.195196160	0.0006723413677425907	1.6956709175213398e-05	-0.0005761156207881868	0.03136018291115761	9.807975769042969	0.03297354280948639
00:00:09.204196352	0.00018634722770711793	0.0012024604901916638	0.0005212738178670406	0.055454157292842865	9.790081024169922	0.05594271048903465
00:00:09.354199552	0.0027503513116860613	-0.0019191725924365864	-0.0008511857013218105	0.02373475395143032	9.804230690002441	-0.016959108412265778
00:00:09.360199680	0.0026312130354815945	5.733313938159255e-05	-0.00012123704073019326	-0.06220773980021477	9.842243194580078	-0.09187193959951401
00:00:09.369199872	-0.0007835464933416023	-0.001688348366854404	-0.00021238886984065175	-0.08771780133247375	9.830751419067383	-0.023007314652204514
00:00:09.378200064	0.0004052396831573771	-0.0006808379594922707	-0.0006169749540276825	-0.042945198714733124	9.729621887207031	0.0028617153875529766
00:00:09.384200192	-0.0012804593573784604	3.029539303221383e-05	-0.0002419164084130898	-0.015369733795523643	9.839564323425293	0.014814842492341995
00:00:09.390200320	0.0007256519017280863	-0.001249288795491372	0.002915891818702221	0.07191592454910278	9.79953670501709	-0.07476428896188736
00:00:09.543203584	0.0010724160671705231	-0.0014148731762298093	0.0008458853117190301	0.0394168458878994	9.823205947875977	0.004662445280700922
00:00:09.552203776	0.0022295452505821213	0.0004590527341014996	0.001083286595530808	-0.05223236232995987	9.788360595703125	-0.07878666371107101
00:00:09.567204096	0.0012531617973470912	0.003470418620879139	0.001666101161390543	0.011946817860007286	9.8355712890625	0.03765964135527611
00:00:09.573204224	0.0011605903124907837	-0.002310860790287767	0.002297227270901203	-0.0022975094616413116	9.830678939819336	-0.03727356344461441
00:00:09.735207680	-2.1546097134161622e-05	0.0011757869459933892	0.0017235452542081475	-0.08838605135679245	9.789067268371582	-0.028205284848809242
00:00:09.744207872	0.0015169024551758394	-0.0010650567756720528	0.0009531609830446541	0.0610787458717823	9.800556182861328	-0.03144126385450363
00:00:09.750208000	-0.0020363605729764476	0.00015214155692498308	-0.003877046750858426	-0.025164104998111725	9.76242446899414	-0.014739541336894035
00:00:09.921211648	0.000950482484466009	-0.00014229405959944133	-0.0026740513276308775	-0.027393434196710587	9.80363941192627	0.03846638649702072
00:00:09.930211840	0.0022682822160893902	-0.0030329803749673707	0.002922679763287306	-0.032001495361328125	9.85658073425293	-0.03156756982207298
00:00:09.936211968	0.00040912891533280177	0.0017393947299815073	0.00032333051785826683	-0.02029888890683651	9.809305191040039	-0.02436261810362339
00:00:10.104215552	0.0001942542873328404	0.0012821804220102086	-0.0005111743230372667	0.032469265162944794	9.84544563293457	0.008491716347634792
00:00:10.119215872	0.000913112409459971	0.0023573200404889243	0.0018009657505899668	-0.06628413498401642	9.797508239746094	-0.019831232726573944
00:00:10.128216064	-0.0007559702647378816	-0.001177076022116159	0.0016893150750547647	0.03578910976648331	9.817782402038574	0.06666355580091476
00:00:10.134216192	-0.002531095888418533	0.0014223040733731642	-0.0008993418305180967	-0.009520186111330986	9.82344913482666	0.0026979732792824507
00:00:10.146216448	0.001595468943985723	0.0010377822863183275	0.0008741658530198038	0.05067687854170799	9.78487777709961	0.005221226718276739
00:00:10.323220224	0.0017204668689990267	-0.000818168167000328	-0.0009570729453116655	0.07715046405792236	9.803316116333008	0.12942415475845337
00:00:10.332220416	0.0024120907616341338	0.0022668455448246853	0.0009937097784131765	-0.028345033526420593	9.754447937011719	0.06515850871801376
00:00:10.338220544	0.0022424771301919446	0.0018414853792882815	-0.002563243033364415	0.00749980891123414	9.807876586914062	0.03726687282323837
00:00:10.344220672	-0.0027269148416346088	-0.0010764248482637748	0.001792369526810944	-0.03033982776105404	9.818838119506836	-0.023141935467720032
00:00:10.350220800	-0.00019852693397497373	-0.001297581596275483	-0.0027267588302493095	0.0706116259098053	9.71611499786377	0.030642298981547356
00:00:10.356220928	-0.001222017585252799	0.0008717915578990534	0.000304882851196453	-0.009080994874238968	9.791830062866211	0.0007055673631839454
00:00:10.509224192	0.001712120938161932	0.0010159333423025265	-0.0010733110830187798	-0.04215613380074501	9.819825172424316	0.01799284853041172
00:00:10.515224320	0.0022493733410263285	-0.00023008467277853641	-0.0014011033345013857	-0.03275761008262634	9.807528495788574	0.07219139486551285
00:00:10.527224576	2.5273489580102384e-05	-0.002503632688870345	-0.0003951096150558442	0.019400527700781822	9.836544036865234	-0.08050385117530823
00:00:10.533224704	-0.001272721347351946	0.0011383061018086329	-0.0013695929665118456	-0.04939752072095871	9.824872970581055	0.02483167126774788
00:00:10.698228224	0.0014387803236493692	-0.0011421650461607322	-0.0009490717784501612	0.04232622683048248	9.84969425201416	0.032244302332401276
00:00:10.701228288	-0.0016493356236716881	0.0020760203432536976	-0.0024358152877539396	0.007279523182660341	9.894213676452637	-0.0828394666314125
00:00:10.707228416	0.0003429868517448978	0.00027470946489025947	0.0010942324297502637	0.052114687860012054	9.78555965423584	0.027936654165387154
00:00:10.884232192	-0.0008962578288739695	0.0002976171480504155	-0.0033153982367366552	-0.04108574986457825	9.831827163696289	0.037270475178956985
00:00:10.893232384	-0.0016407239166548624	-0.0013104185973980174	0.0011286967201158404	-0.030827311798930168	9.727749824523926	0.05366424471139908
00:00:10.899232512	0.00015457308442619084	0.0021891355235374825	-0.0022602740209549665	-0.04342469573020935	9.695284843444824	-0.026034733280539513
00:00:10.917232896	-0.0022569759897416606	-0.0003827277151622519	9.738322114571929e-05	-0.07416871190071106	9.788494110107422	-0.03917670249938965
00:00:11.073236224	-0.0006683953254943861	-0.0004078471439179674	0.0015272445743903518	0.05760432407259941	9.795516014099121	-0.04670983925461769
00:00:11.079236352	-0.00053757372400669	0.00041002343178385046	-0.0021802156697958708	-0.035878267139196396	9.786462783813477	-0.023880360648036003
00:00:11.085236480	-0.0006768070309883131	-0.0014268587156885013	0.0006489296210929751	0.01349471602588892	9.814671516418457	0.02921428717672825
00:00:11.103236864	-0.0004800885365804805	0.0004107459925825998	0.0008384742541238666	0.06897249817848206	9.82341194152832	-0.011596594005823135
00:00:11.262240256	0.001815918818163298	0.0010568124661467328	-0.002563720801845193	-0.03235669806599617	9.81941032409668	-0.06098054721951485
00:00:11.268240384	0.00018921024426872296	0.0018489775201550975	-0.001156719052232802	0.013449284248054028	9.786470413208008	0.05483264476060867
00:00:11.286240768	0.0008759202752733455	-0.0016785144153737173	0.001045413431711495	-0.02389405481517315	9.830945014953613	0.03341852128505707
00:00:11.457244416	0.003278207251849197	-0.0012908782856293664	0.001091749407351017	-0.02458009123802185	9.804729461669922	-0.04299703612923622
00:00:11.463244544	6.513863779018552e-05	-0.0007631758390680597	-0.0010697327088564634	0.07989215850830078	9.882253646850586	0.013797263614833355
00:00:11.475244800	-0.00040739642311764495	0.0003841918322968587	0.00018371580517850816	-0.02548809163272381	9.82089614868164	-0.05256592482328415
00:00:11.481244928	0.0020505839344585166	0.001030635549711372	0.0007775341509841383	-0.056097157299518585	9.80106258392334	-0.03598632663488388
00:00:11.487245056	-0.0008143127345940246	0.0009106730530283704	-0.000670699228066951	-0.06769462674856186	9.809893608093262	0.03974524140357971
00:00:11.649248512	0.001493506700778924	0.0002524250839150801	-0.0009343092096969485	0.035990145057439804	9.84131145477295	0.05507967248558998
00:00:11.658248704	0.0006572645358281062	-0.0027605932019405706	-0.0002328410482732579	-0.056332215666770935	9.74260425567627	0.04657430574297905
00:00:11.664248832	-0.0018445138269564286	0.001868044021563913	0.0003837920376099646	0.008388355374336243	9.7805814743042	0.005456374958157539
00:00:11.670248960	-0.002376609729555823	-0.0004238022130203143	0.00035731832031160593	-0.0013817779254168272	9.738554000854492	0.044358886778354645
00:00:11.676249088	0.00040905996835844977	-0.002230667630185996	0.0032979908864945173	0.027424102649092674	9.817492485046387	0.07940243929624557
00:00:11.682249216	-0.000708235500798948	-0.0016412978339695081	0.0004299371503293514	-0.017936022952198982	9.80292797088623	-0.013528866693377495
00:00:11.832252416	-0.0006464790934225692	0.0001854449900810897	0.0011073598871007562	-0.0232522115111351	9.775912284851074	-0.044791027903556824
00:00:11.838252544	0.00027685830688624097	-0.0009459335170441017	-0.0021902956068515778	-0.02537982165813446	9.830843925476074	0.06694938987493515
00:00:11.847252736	0.0011047934964770302	0.000781525911322172	0.0019008194794878364	-0.008717626333236694	9.776179313659668	-0.00155607087071985
00:00:11.862253056	0.0016552680023485646	0.0012561723077914968	0.0028021070174872875	0.02366928942501545	9.810023307800293	-0.014418600127100945
00:00:12.021256448	0.0007091676667803751	0.0011811796529463783	-0.0015090580563992262	0.040263619273900986	9.798646926879883	0.05142653360962868
00:00:12.027256576	-0.000331194940674506	0.0009873279440461948	-0.0027040306013077497	0.027351146563887596	9.856659889221191	-0.019126394763588905
00:00:12.033256704	-0.001675086809275128	0.004208665918583359	-0.0021492557134479284	-0.02214301936328411	9.797904014587402	-0.06296797096729279
00:00:12.036256768	0.001728349001193963	-5.431561029857847e-05	0.001154447323642671	-0.03768153116106987	9.838918685913086	-0.008666903711855412
00:00:12.051257088	-8.973557881490874e-05	-0.0011541248578333006	-0.003090539714321494	-0.004189667757600546	9.73393726348877	0.026865532621741295
00:00:12.207260416	-0.001139682499644734	0.002287299484039034	0.0009153379942290485	-0.006336101330816746	9.748006820678711	-0.05535305291414261
00:00:12.216260608	0.0002990915815351383	0.001654675225751783	0.0014426966663450003	0.020157473161816597	9.841139793395996	0.0217475276440382
00:00:12.225260800	-0.0017876048953732624	-0.00427218887952498	-0.002383313374593854	-0.0195260439068079	9.859016418457031	-0.032849375158548355
00:00:12.237261056	-0.0019354976396536603	-0.0010488203307368502	-0.0008841952076181769	0.04790053144097328	9.777099609375	-0.02209576591849327
00:00:12.393264384	-0.001579761636396326	0.0002900811768149316	-0.002782956464216113	-0.036653533577919006	9.826430320739746	-0.003982111811637878
00:00:12.399264512	0.0016393260881775841	-0.0007130118366085634	0.0007732954691164196	-0.04052194207906723	9.743757247924805	-0.008145132102072239
00:00:12.402264576	-0.0004971011224663033	-0.0004471898474485323	-0.00162451749201864	-0.021469438448548317	9.791633605957031	0.02625398151576519
00:00:12.408264704	-0.0005894287754310443	0.0034059641137964385	-0.0012544248020276427	-0.03242802247405052	9.797372817993164	-0.04380233213305473
00:00:12.585268480	-0.00017502142903340595	-0.001687609711637412	0.00037350141792558134	0.09595807641744614	9.750064849853516	0.009824523702263832
00:00:12.591268608	0.0013005523793870434	-0.00038417696950367544	-0.00040467095095664263	-0.07035394757986069	9.903020858764648	0.04276764765381813
00:00:12.600268800	0.0020950217582756505	0.0016212962754315987	-0.0015998963499441743	-0.07995796203613281	9.794697761535645	0.019777731969952583
00:00:12.615269120	-0.002398165423375942	0.000477835676890175	-0.0005118180997669697	0.023555688560009003	9.748534202575684	0.0745152160525322
00:00:12.624269312	-0.00038697551675086455	0.002475128620887484	-0.0026246262714266777	-0.05791359022259712	9.790997505187988	0.027470752596855164
00:00:12.810273280	0.0003945605855440573	-0.0015393991535284266	-0.0015932252863422036	-0.02793619967997074	9.77485179901123	-0.004340584855526686
00:00:12.819273472	0.0015304883560636863	0.001505608665781404	-0.00021782102703582495	-0.009941158816218376	9.784335136413574	-0.021626947447657585
00:00:12.828273664	0.0011763780927756652	-0.0007643327163287148	0.0023189480416476727	0.013466300442814827	9.745562553405762	-0.10846848040819168
00:00:12.834273792	0.0014991562199318633	0.002149084461877431	0.002292606048285961	0.05646222457289696	9.806949615478516	-0.003975642379373312
00:00:12.840273920	-0.00033081874456202226	-0.0016506322473042354	0.0019643432460725307	0.009519615210592747	9.752881050109863	-0.0542665496468544
00:00:12.849274112	-0.0008641671305051221	2.8395596843404853e-05	-0.0008119902340695262	0.03109862469136715	9.804634094238281	0.01770547404885292
00:00:13.002277376	0.002340592661919616	-0.00099807046817026	-0.0018540198216214776	0.029419420287013054	9.785815238952637	-0.013107949867844582
00:00:13.005277440	-0.001599567724344708	-0.0015732097718619451	3.154363366775215e-05	-0.026436487212777138	9.77010726928711	-0.08242557942867279
00:00:13.017277696	0.0007312538652220593	0.00212474271657535	0.000968600157648325	-0.03354658931493759	9.841900825500488	0.005057888105511665
00:00:13.191281408	0.002017937818589233	-0.0033734558429323776	-0.0008524605073034763	0.0316290408372879	9.840694427490234	0.04939231276512146
00:00:13.200281600	0.004297918159561776	-0.000268106149717857	-0.0005953320069238544	-0.01820310577750206	9.855371475219727	-0.00843691173940897
00:00:13.206281728	-9.266659647637594e-05	-0.0007434997288264975	-0.00021702282538171858	-0.08824510127305984	9.798907279968262	-0.04208448529243469
00:00:13.212281856	0.002029217066290401	0.000755457319343771	0.0018344796262681484	-0.060431063175201416	9.8662748336792	-0.02104013040661812
00:00:13.218281984	-0.0020975079535966888	0.0028926086332894223	0.0022060186602175236	0.013454432599246502	9.85836410522461	-0.030409378930926323
00:00:13.224282112	-0.0002676025763614251	0.00034176281306550946	-0.0028132908046245575	0.009485330432653427	9.755456924438477	-0.01495800819247961
00:00:13.380285440	0.002022650543647431	-0.0023113865218811376	0.0007333574467338622	-0.04032767936587334	9.815132141113281	0.07096126675605774
00:00:13.389285632	-0.0009871471123298779	0.0012217698339618101	-0.001463085412979126	-0.020417673513293266	9.74074649810791	0.015504356473684311
00:00:13.398285824	-0.001663946677883543	-0.0002567954407759652	4.8399775550933555e-05	0.0562901496887207	9.762526512145996	0.028872469440102577
00:00:13.404285952	-0.0024409562032198682	0.0007932786201372102	0.000424705445766449	-0.09425792843103409	9.7665433883667	-0.05465073511004448
00:00:13.416286208	-0.0004750877418084218	0.002818991541887011	0.000304001965560019	-0.06532351672649384	9.816644668579102	-0.01925872266292572
00:00:13.422286336	-0.0011321839559352174	0.0007916957210063293	-0.001745559391565621	0.029795050621032715	9.835738182067871	-0.0427318699657917
00:00:13.572289536	0.0006381019917787836	-0.0012644553836189852	-0.0007826056098565459	0.07158932089805603	9.87712574005127	0.030257845297455788
00:00:13.578289664	0.0008750464618677126	-0.0008184463414118335	2.6331841581850313e-05	0.04519852623343468	9.762157440185547	0.021697111427783966
00:00:13.587289856	0.0014796686443039999	-7.429572263424127e-06	0.0012262477539479733	-0.005259702447801828	9.788379669189453	0.018660450354218483
00:00:13.596290048	-0.001637424822849609	0.00020005480738015022	-0.0031005803029984236	-0.011182364076375961	9.743488311767578	0.03392433002591133
00:00:13.605290240	-0.0021422440334683433	0.00042269526866854277	0.0012582136550918221	0.02123500406742096	9.841510772705078	-0.018907301127910614
00:00:13.614290432	0.0005627618371980117	0.0002651408675837621	-0.0010965405963361263	-0.008633499033749104	9.80986499786377	0.024050308391451836
00:00:13.788294144	-0.0007704755556298568	-0.0005312476469889924	0.00047105035628192127	-0.07307170331478119	9.739738464355469	0.0417519211769104
00:00:13.803294464	0.0013286073077941165	0.0007933481782920017	-0.0030503186862915754	0.0019257417879998684	9.782176971435547	0.0546012781560421
00:00:13.809294592	-0.001430782737163283	-0.0007778844493196056	0.0014413244789466262	-0.014103413559496403	9.83420467376709	0.03416785970330238
00:00:13.818294784	0.002071503534960173	-0.001507434416537796	0.00015815350343473256	0.030753538012504578	9.845608711242676	-0.04877319931983948
00:00:13.821294848	0.0005848618890629934	-0.0008847028412610934	0.0012016763212159276	0.02622673287987709	9.79104232788086	-0.024654045701026917
00:00:13.833295104	0.0007134526819461809	-0.0004439131053850696	0.0016416049329563975	-0.07479936629533768	9.792202949523926	0.08694394677877426
00:00:14.007298816	3.838518902539194e-05	2.0715796296793194e-05	0.000543184345588088	0.07754577696323395	9.802865982055664	-0.02634788490831852
00:00:14.013298944	-0.002408504035276748	-0.0017919506691151008	0.0007830064278095961	-0.01963699795305729	9.796883583068848	-0.0141395078971982
00:00:14.019299072	0.0017990700286352858	-0.001330816191596602	0.0009938277071341872	0.01703380048274994	9.840435981750488	-0.0514802560210228
00:00:14.025299200	-0.0006721218963613881	-0.0012348273349680648	0.0010853070998564363	0.014440315775573254	9.75543212890625	-0.047262951731681824
00:00:14.193302784	-0.0010218060491135493	-0.00017060182753360722	0.0014446203131228685	0.021777242422103882	9.823806762695312	-0.07001113891601562
00:00:14.199302912	-0.0005005964342964961	-0.0003990306332462177	-0.0014695944264531136	0.010227990336716175	9.779932975769043	-0.031504832208156586
00:00:14.214303232	0.0005978407422551738	-0.0023655194137000186	0.0001487092231400311	-0.08345091342926025	9.810643196105957	0.04360801726579666
00:00:14.220303360	-0.001199641978321053	-0.0007568621122964368	-0.0009040733566507697	0.07860871404409409	9.750777244567871	-0.0282073225826025
00:00:14.226303488	-0.005001387573731519	-0.0020874947122984273	0.001250069122761488	-0.07053422182798386	9.727009773254395	0.03794613480567932
00:00:14.379306752	-0.000735437454142995	-5.2371765462373226e-05	0.000812854093965143	-0.056626252830028534	9.863659858703613	-0.04607366770505905
00:00:14.391307008	-0.0027065461184358373	-0.0007287248200491712	0.00020759391190949827	-0.05288618803024292	9.805984497070312	0.0014918388333171606
00:00:14.397307136	0.00013076653673833622	0.00030812984451309886	0.0023574004881083965	-0.03282446786761284	9.776474952697754	-0.05080900713801384
00:00:14.406307328	0.002058892495977305	-0.0002836857211996511	-0.00018034233653452247	-0.017723165452480316	9.780679702758789	-0.05683603510260582
00:00:14.418307584	0.001297083668457888	-0.0009142322279267654	0.0010531025473028421	0.055359698832035065	9.798909187316895	0.046851515769958496
00:00:14.565310720	0.0010207342999527082	0.0012890082970506802	5.309495008987142e-06	-0.00751593429595232	9.755200386047363	-0.029556728899478912
00:00:14.577310976	0.002147425416904114	-0.002168272742977057	0.0007762181339785457	0.06065388396382332	9.786896705627441	0.029431473463773727
00:00:14.583311104	0.0005660726889507697	0.0005551145831368222	-0.000675324525218457	-0.0042086574248969555	9.8108549118042	-0.007588264998048544
00:00:14.592311296	0.0019639934031763897	-0.001142436293860589	0.0008086151792667806	-0.048875123262405396	9.747182846069336	0.02903009206056595
00:00:14.604311552	-0.0016360876764631048	0.0015045582503325596	-0.0032063156832009554	0.035996612161397934	9.809475898742676	0.014032240957021713
00:00:14.610311680	-0.002689183471677281	-0.00046673464120707366	-0.0001316999550908804	0.02311970852315426	9.831664085388184	0.012850123457610607
00:00:14.793315584	-0.0016701072602993026	0.0011559381336218968	-0.00024946441408246756	-0.0600440613925457	9.786510467529297	-0.04718250781297684
00:00:14.853316864	-0.00045285340486971276	-0.0013107104506098375	0.0024943624157458544	-0.013695727102458477	9.818153381347656	-0.0077488841488957405
00:00:14.886317568	-0.0015335087812965885	0.0006276257289818778	0.00010822975309565663	-0.026296859607100487	9.87144947052002	0.03745879977941513
00:00:14.904317952	-0.0022876693550026193	0.0032240318786598103	0.0010878730099648237	-0.05030842497944832	9.801471710205078	-0.00930363591760397
00:00:14.919318272	0.001143022076273881	-0.0016964819561444864	0.0030609359964728355	-0.036862149834632874	9.753931999206543	0.00044479931239038706
00:00:15.081321728	-0.0019003329947119727	-0.003048321818908368	-0.0017448152648285031	0.03292834758758545	9.827323913574219	0.018019746989011765
00:00:15.090321920	6.222787913246199e-06	-0.0009066119719982788	-0.0009105426725000143	-0.0008339774794876575	9.82571792602539	-0.040584832429885864
00:00:15.099322112	0.0006375807421753035	-0.002109768921484862	-0.0008399481303058565	-0.004876676481217146	9.811151504516602	0.060889169573783875
00:00:15.105322240	-0.0014909343011206165	-0.001451708613870357	-0.000753448810428381	-0.023241372779011726	9.793971061706543	0.03190547227859497
00:00:15.111322368	-0.0004940571528388335	0.0003601717425289854	-0.0008078168029896915	-0.058868978172540665	9.823004722595215	-0.01793559454381466
00:00:15.135322880	0.0024333922043913827	-0.0017910257493831858	-0.0005747463437728584	0.01561607513576746	9.841949462890625	0.018332598730921745
00:00:15.297326336	0.0012054344257810936	-0.0036234090849511964	-0.0026827615220099688	0.09594274312257767	9.85573673248291	0.044611360877752304
00:00:15.303326464	0.002052409326704763	-0.0001311747811023787	-0.0002987537591252476	-0.023152105510234833	9.827103614807129	0.023159552365541458
00:00:15.309326592	-0.004611257944208957	-0.005151345748429809	0.00111022824421525	0.03673361986875534	9.794906616210938	-0.06166457757353783
00:00:15.318326784	-7.19079692609756e-05	-0.0010494436183699116	0.0013543018139898777	0.0157694723457098	9.756163597106934	-0.04762691631913185
00:00:15.324326912	0.0002604829639201836	9.403591948918175e-05	-0.00010267504694638774	-0.03307843208312988	9.816929817199707	-0.029504310339689255
00:00:15.330327040	0.0014656627169350013	0.001015220705909963	-0.0008326817769557238	-0.004882988054305315	9.840522766113281	-0.0029342155903577805
00:00:15.486330368	0.0017870360604027137	-3.3563094887574046e-05	-0.002873871475458145	0.03682306408882141	9.870840072631836	0.010419455356895924
00:00:15.495330560	0.000306959976722099	0.003207048047358479	0.0010186819126829505	0.028834018856287003	9.76607608795166	-0.020876547321677208
00:00:15.501330688	-0.0005953646762756778	0.00152402906215408	-0.00012692649033851922	-0.011659258045256138	9.817137718200684	-0.01676809974014759
00:00:15.507330816	0.00044245751602629585	0.002857380658412661	-0.0002061913546640426	-0.046721138060092926	9.818964004516602	0.06845644116401672
00:00:15.678334464	-0.0011170560176944509	-0.0008001396246009216	0.0031159846112132072	0.052812814712524414	9.815751075744629	-0.00970050785690546
00:00:15.687334656	-0.002050776980770208	0.0019196285819880023	0.00038194627268239856	0.03248858079314232	9.83834457397461	0.04095574468374252
00:00:15.693334784	-0.0017357984473457709	-0.0002901694434449718	-0.0017655111150816083	-0.018520642071962357	9.754022598266602	-0.006604976952075958
00:00:15.699334912	0.0017999870321253166	-0.0015141614759095654	-0.0013496208703145385	0.04610516503453255	9.81204605102539	-0.03921850398182869
00:00:15.705335040	-0.00022539512459134297	0.0007817859249434724	-0.0004854419094044715	-0.016899824142456055	9.752625465393066	0.01255557220429182
00:00:15.714335232	-0.0008000139644829704	-0.0010087997698911175	0.003410089062526822	-0.04132523387670517	9.85223388671875	-0.05085192248225212
00:00:15.861338368	-0.0012686452976888194	0.00044725718444802907	-0.003134871367365122	0.0039830696769058704	9.909318923950195	0.00488869147375226
00:00:15.867338496	-0.0004291229273187144	0.0027144438307977574	0.00025921178166754544	-0.017496831715106964	9.765621185302734	0.029095059260725975
00:00:15.876338688	-0.0012288637374987975	0.0030120500549919264	0.001369457459077239	0.023479506373405457	9.769745826721191	-0.04851243272423744
00:00:15.891339008	0.00016052937978001697	-0.0028929897863172634	-0.00022844047634862363	-0.047513198107481	9.81846809387207	-0.02807413414120674
00:00:16.050342400	0.000911103139212899	0.0012684111669904843	0.0009321839897893369	-0.04948808252811432	9.82038402557373	-0.019526943564414978
00:00:16.056342528	-0.0008165442416904642	0.002887612786168541	-0.0007175065693445504	-0.03686822950839996	9.816444396972656	0.025898251682519913
00:00:16.068342784	-0.0010587372965639606	0.0001145361556218296	-0.00011338283366058022	-0.04796214401721954	9.775019645690918	0.06285444647073746
00:00:16.074342912	0.0020528123565489277	0.003788163298765506	1.8972497855429538e-05	-0.015559122897684574	9.822444915771484	0.024594370275735855
00:00:16.083343104	0.00027674420531893535	-0.00021788300827487264	-0.00038304747431539	-0.022379091009497643	9.770204544067383	-0.006279436871409416
00:00:16.092343296	0.0007076221369678007	0.0008593740011810615	0.00023777289607096463	0.06744653731584549	9.748344421386719	0.07160820066928864
00:00:16.275347200	-0.001403181130019404	-0.0017500248551123485	-0.0008928952738642693	-0.05338004231452942	9.804252624511719	0.02959270402789116
00:00:16.287347456	-0.0010076211913949027	-0.0010394579777248845	-5.525266897166148e-05	-0.020771272480487823	9.793461799621582	0.012877780012786388
00:00:16.296347648	0.0010972287124493942	7.433072542604633e-05	-0.00025992683367803693	0.005750626791268587	9.840812683105469	-0.07268252968788147
00:00:16.305347840	-0.002971675494638659	-0.0005418615811259196	0.0023529822938144207	0.08433087915182114	9.829314231872559	-0.005579558666795492
00:00:16.314348032	0.0005552744693593906	-0.0010853431932382927	0.0021756761707365513	0.011154726147651672	9.83945083618164	0.030025161802768707
00:00:16.326348288	-0.0027720348592376485	-0.0009797541470952973	-0.00010367379582021385	0.018432561308145523	9.757879257202148	-0.05335265025496483
00:00:16.503352064	-0.001672059079585053	0.0017334623215965286	0.0005854400806128979	-0.06277183443307877	9.775256156921387	0.019793204963207245
00:00:16.509352192	0.0016396795250946507	-0.00027361209967515323	0.0033836313523352146	-0.0063615115359425545	9.83725357055664	0.02896702103316784
00:00:16.515352320	0.0008992428044328318	0.0009024162381201341	-0.001398284686729312	0.02444973960518837	9.793516159057617	0.0128407534211874
00:00:16.518352384	-0.0016014247815584913	0.0019132563565171614	-0.0012856235262006521	-0.06958361715078354	9.773177146911621	-0.03296924754977226
00:00:16.692356096	-0.0022311511132395044	0.0027946975268668788	-0.0038558251690119505	-0.10881373286247253	9.767914772033691	-0.0121504170820117
00:00:16.701356288	-0.00018543876679559784	-0.0026584110501908405	0.0016685966402292252	-0.033653516322374344	9.818227767944336	-0.01928390935063362
00:00:16.710356480	0.0013548129788139686	0.0005671745119861617	-0.001766860019415617	0.016434695571660995	9.815611839294434	0.021920830011367798
00:00:16.713356544	0.0017382786460691914	0.0005290513753670558	-0.00034233502810820937	0.010511747561395168	9.839374542236328	0.047981392592191696
00:00:16.719356672	0.0014597658152231798	0.00239674245941111	7.652741624042392e-05	0.006149152293801308	9.769621849060059	0.0026325038634240627
00:00:16.728356864	0.001917714354629241	-0.0009334713732578501	0.001628985977731645	-0.0294442567974329	9.81767749786377	-0.09995268285274506
00:00:16.881360128	-0.00026659366297481196	-0.0005220747017056391	0.001270193257369101	0.06552205979824066	9.783544540405273	-0.0326140858232975
00:00:16.884360192	0.001205738851847671	0.0009454607451579824	0.0002016151847783476	-0.010363196954131126	9.772618293762207	-0.03119843266904354
00:00:16.896360448	-0.0018074343828013316	-0.0006700826971546457	-0.002468420658260584	-0.040306102484464645	9.84138011932373	0.09193504601716995
00:00:17.067364096	0.00040843426510746045	0.002476940741787042	-0.001074810978025198	0.009940754622220993	9.783255577087402	-0.08071953058242798
00:00:17.070364160	-0.0017597749977832809	-0.0022345719672494276	0.0017065994907170534	-0.09418487548828125	9.824100494384766	0.06817489117383957
00:00:17.085364480	6.735308458500926e-05	-0.0013766391249128327	-0.001704614725895226	0.032222479581832886	9.78160285949707	-0.0037362922448664904
00:00:17.250368000	0.0014504194111103043	0.002150477720449056	0.00045640606549568474	-0.024578578770160675	9.809773445129395	0.01535079162567854
00:00:17.256368128	-0.0005834837359836473	0.0016483815806231752	-0.0012990273535251617	0.007906350307166576	9.845638275146484	-0.023421335965394974
00:00:17.262368256	-0.0013887700773304477	0.0017321760487056628	0.0004891345743089914	-0.06172183156013489	9.841217994689941	-0.0034314170479774475
00:00:17.268368384	-0.0033136627319729104	0.0001796944224288046	9.009493805933744e-05	-0.0627085417509079	9.89393138885498	0.06692276149988174
00:00:17.274368512	-0.003173255143640019	0.00023768491055940386	0.0003655714390333742	-0.04075729846954346	9.878835678100586	0.07702809572219849
00:00:17.283368704	-7.000721264576155e-05	0.0007375290687441185	0.001343250391073525	-0.08086644113063812	9.775385856628418	0.03311798721551895
00:00:17.295368960	-0.0016666154991364255	-0.0009930714778356895	0.0022986072581261396	-0.0004927329136990011	9.791135787963867	0.044202279299497604
00:00:17.466372608	0.0015526679195934758	-0.0020446787867449863	0.002339439233765006	-0.0345153883099556	9.84423828125	-0.002816874301061034
00:00:17.472372736	-0.00031987928408143656	-0.004193986188595806	0.0007984458352439106	-0.015546217560768127	9.821338653564453	0.04574824869632721
00:00:17.487373056	0.0007210777691105233	0.0009706431254989758	-0.004643588326871395	-0.013654673472046852	9.886726379394531	-0.018777787685394287
00:00:17.493373184	0.002320554558234833	0.0008812854602246835	-0.002964290324598551	-0.018613150343298912	9.751072883605957	-0.09392854571342468
00:00:17.658376704	0.0016294208905199394	0.00292341981085607	0.0007479044725187123	0.07975242286920547	9.834066390991211	-0.02323712781071663
00:00:17.664376832	0.0032736575082415566	-0.0003664697042886809	0.0008387257112190127	0.029644543305039406	9.86281681060791	-0.010119912214577198
00:00:17.670376960	-0.0007931932489847912	-0.00027057849101132605	-0.0004997768555767834	0.024821531027555466	9.788168907165527	-0.017265327274799347
00:00:17.676377088	-0.0030018838736688867	0.00298525660301217	0.0023652734234929085	0.01375300157815218	9.89444637298584	-0.01442456804215908
00:00:17.682377216	0.0006382601419934855	-0.002898688316320692	0.003945833072066307	-0.02741078846156597	9.885293006896973	0.12257704883813858
00:00:17.685377280	0.0010143751712055728	0.0004189014679531857	0.002521629212424159	0.07551420480012894	9.77221393585205	-0.042107608169317245
00:00:17.847380736	0.00017523659304770095	-0.003586207404708181	0.0016172846080735326	-0.005577636882662773	9.718706130981445	0.04044055566191673
00:00:17.850380800	0.0005779297058941649	-0.0015493982983507857	-0.0004924701643176377	0.0839289054274559	9.794584274291992	-0.03526730835437775
00:00:17.856380928	0.0009043170572729634	-0.0005544638889596507	0.0002823200193233788	0.09620209038257599	9.807209014892578	-0.006789351347833872
00:00:17.904381952	0.0008097985843667613	0.0006636466668232634	0.0026906225830316544	0.03288304805755615	9.830404281616211	-0.006340359337627888
00:00:17.955383040	-0.0008186022899573817	-0.00225182285529903	-0.0011600524885579944	-0.03803082928061485	9.818257331848145	-0.05906898155808449
00:00:17.964383232	-0.0005341692743351831	0.0005982654937788203	0.001961740432307124	0.06060904636979103	9.827878952026367	0.06089968606829643
00:00:18.132386816	0.0013657582309568152	0.0009500511177129402	0.0024066439364105463	-0.044633131474256516	9.830170631408691	0.024742942303419113
00:00:18.141387008	0.0006049701329791771	0.002148310998479213	0.0010318562854081392	-0.007298785261809826	9.766210556030273	-0.03721170127391815
00:00:18.153387264	-0.002422150006470658	-0.0011002233996742115	0.0012821857817471027	-0.037770114839076996	9.782537460327148	-0.014990786090493202
00:00:18.162387456	-0.0036029573678499236	-0.0005673664319083736	0.0020140940323472023	0.0062883091159164906	9.836572647094727	0.01088566891849041
00:00:18.165387520	0.0009413466756703184	0.0007883348688728466	-4.507204721448943e-06	-0.00014722725609317422	9.799936294555664	0.006473262328654528
00:00:18.321390848	0.00022855328249333812	0.001938275871822919	1.8151575204683468e-05	0.001150198862887919	9.833833694458008	-0.007372034713625908
00:00:18.324390912	0.0014821698274934516	0.004091636855179753	0.0018107802607119083	-0.03636402264237404	9.746591567993164	0.01387520506978035
00:00:18.342391296	-0.0006221741353621854	-0.004152153041189228	-0.0016184371197596192	-0.045689914375543594	9.791869163513184	-0.027373025193810463
00:00:18.348391424	-0.0025097907203709855	-0.0012328987987466798	-0.00046784072765149176	-0.006810417398810387	9.79062557220459	-0.055973805487155914
00:00:18.510394880	0.0009481549929367231	0.0012490831967688456	-0.0020705328788608313	-0.006185002624988556	9.821887969970703	-0.01893584243953228
00:00:18.522395136	0.00019719831440652175	0.0008961635711848095	0.0007401852635666728	0.046546559780836105	9.788416862487793	0.033235445618629456
00:00:18.531395328	-0.00039456084808280306	0.002976653976390447	0.0003091084072366357	0.027532735839486122	9.842302322387695	-0.022337593138217926
00:00:18.540395520	0.001093793529132925	0.000428434311203967	-0.0012177552562206984	-0.07562755048274994	9.817094802856445	0.008141492493450642
00:00:18.552395776	0.0015448375922167525	1.2524279470165418e-05	-0.0016640800749883056	0.025598686188459396	9.778547286987305	-0.035268884152173996
00:00:18.699398912	0.0008933435162069128	-0.0007825298863217876	0.001313461922109127	-0.0012653939193114638	9.744522094726562	-0.0020360127091407776
00:00:18.714399232	-0.000259859240333937	-0.0006088659912102566	0.0036837533116340637	0.03393944352865219	9.7752685546875	-0.058426085859537125
00:00:18.720399360	0.0009047026830265151	8.145489201248266e-05	0.0010510473512113094	-0.07801233977079391	9.821552276611328	0.010990994051098824
00:00:18.732399616	0.001318527719984375	0.00024590397779953774	0.0013021486811339855	-0.005556323565542698	9.835159301757812	-0.048694487661123276
00:00:18.738399744	-0.0018422403521364704	0.0016044132597989693	-0.003404817311093211	0.1015157699584961	9.751275062561035	-0.06460168212652206
00:00:18.744399872	-0.00027739327955005305	-0.00041201300800188336	0.0009982677875086665	-0.04689266160130501	9.83810043334961	-0.04962886869907379
00:00:18.924403712	0.0002898743693256603	-0.002011944428061758	-3.060384915443137e-05	0.01773788034915924	9.764616966247559	-0.019870316609740257
00:00:18.933403904	-0.0015186474341428056	0.0008621796104370907	-3.0060706194490194e-05	-0.019605621695518494	9.783792495727539	0.0013018724275752902
00:00:18.951404288	0.0007214090289087818	-0.001982605904316221	-0.0038623716682195663	-0.05566774308681488	9.781400680541992	-0.0438535213470459
00:00:19.107407616	-0.0006201319195790364	0.0017349574435747519	-0.0005439858068712056	0.018379980698227882	9.797531127929688	0.04248056560754776
00:00:19.113407744	0.0013432652773806677	0.0029721209965891497	0.0003909026854671538	-0.016856567934155464	9.805634498596191	0.0069950358010828495
00:00:19.119407872	0.001278904833878003	0.00268875841985115	-0.0003986966912634671	-0.03655686974525452	9.817091941833496	0.051301952451467514
00:00:19.125408000	0.0026989460308575854	-0.0013610904616989836	-0.0008334289886988699	0.01561630517244339	9.806944847106934	0.06586956232786179
00:00:19.131408128	7.892786167558201e-05	0.001844226145210053	-0.002588051138445735	-0.01135977078229189	9.765161514282227	-0.04227546602487564
00:00:19.137408256	0.0010823169574612603	8.291793247459565e-05	0.0018354548374190927	-0.059450458735227585	9.73034954071045	0.05920632183551788
00:00:19.302411776	-0.0005460781543044521	-0.0006138384388514504	0.0017442085081711411	-0.039586152881383896	9.767852783203125	0.026047589257359505
00:00:19.305411840	0.002409542663069986	0.0004967117228324815	-0.0008682440966367722	0.060831259936094284	9.75495433807373	-0.019292078912258148
00:00:19.311411968	3.8212207782466667e-07	-0.0008714828919374094	0.00021496006229426712	-0.019229888916015625	9.838974952697754	0.007580278441309929
00:00:19.323412224	0.00029026484086698307	0.00455374747517177	0.0012746151769533753	0.043303146958351135	9.803510665893555	0.012090548872947693
00:00:19.491415808	-0.00042289866572191553	-0.0005452281376101718	-0.002546986099332571	-0.025832878425717354	9.780247688293457	-0.005750702228397131
00:00:19.494415872	-0.0011556974062224999	0.0020891305711365597	0.002296719467267394	0.011267926543951035	9.780935287475586	-0.014416571706533432
00:00:19.512416256	0.00014747134234112142	0.0022955945413804905	-0.00046797210234217346	-0.03435416519641876	9.786449432373047	-0.061858829110860825
00:00:19.683419904	-9.366864135900128e-05	-0.001924296496411477	0.0003126710362266749	0.015338595025241375	9.814324378967285	0.009304884821176529
00:00:19.689420032	0.0014074460920417533	-0.0010818010242410645	0.000272063713055104	0.03559544309973717	9.816720008850098	-0.011687331832945347
00:00:19.701420288	1.3465869112949937e-05	0.0007983379718161478	-0.00030966816120781004	-0.03999573737382889	9.714617729187012	0.06272521615028381
00:00:19.707420416	0.001581903299363874	0.001111832559133257	0.0020690516103059053	-0.04286520555615425	9.836020469665527	-0.041657522320747375
00:00:19.713420544	0.0015895981193059907	-0.0017425682209186897	-0.0033091765362769365	-0.010792338289320469	9.825666427612305	0.027645127847790718
00:00:19.719420672	0.0015129699456045255	-0.00011106413612018231	0.000355228636180982	0.08816450089216232	9.789633750915527	-0.04745366796851158
00:00:19.878424064	0.0012107175859162435	0.00047370345683426704	0.0021985378116369247	-0.03732360899448395	9.779253005981445	-0.013928063213825226
00:00:19.884424192	-0.0005027159498533382	-0.0006246072635740683	-0.00349589460529387	-0.010646775364875793	9.844793319702148	-0.06085936352610588
00:00:19.902424576	0.0006188958501914368	-0.0001627683569431946	0.001149085583165288	-0.07725166529417038	9.837038040161133	-0.019890205934643745
00:00:19.905424640	0.0014924609419429526	-0.0003022872598130897	0.0014758794568479061	0.08730706572532654	9.780108451843262	-0.01966763846576214
00:00:19.911424768	0.0009298687652224527	0.002221072902927484	-0.0003908299549948424	-0.07312919944524765	9.884397506713867	-0.05886191502213478
00:00:20.070428160	-0.0010187177834561243	0.0013819121476508036	-0.0015034738462418318	0.0069876862689852715	9.84310531616211	0.030222056433558464
00:00:20.076428288	0.003902392679872535	-0.0018991080624737487	0.001183700980618596	0.07532085478305817	9.820460319519043	0.029883714392781258
00:00:20.079428352	-0.0023211357332294956	-0.00019189145413569066	-0.0039653596468269825	0.048888612538576126	9.78778076171875	0.047684457153081894
00:00:20.256432128	0.0014921078542718515	-0.003088387781729613	0.0012433880474418402	-0.04661712050437927	9.742025375366211	0.020014991983771324
00:00:20.262432256	0.0020606566537642703	-0.0006851341505289719	-0.0024546270724385977	-0.0202537439763546	9.852502822875977	0.05165829882025719
00:00:20.271432448	-0.00025069912983981507	-0.00010833134464795593	-0.0015054410323500633	-0.03821757435798645	9.781551361083984	-0.015807736665010452
00:00:20.277432576	0.0005222577453130708	-0.0019782568607234104	0.0009841767605394125	0.05248541384935379	9.805046081542969	-0.001397759304381907
00:00:20.283432704	0.0019418549342552051	0.001124707977311994	0.0006513077532872558	-0.020952275022864342	9.80313491821289	-0.024176860228180885
00:00:20.289432832	-0.0030214181318408027	0.0001282391994272649	-0.0006464882171712816	0.06584203243255615	9.780540466308594	-0.019285937771201134
00:00:20.445436160	-0.0019027299861883893	1.8730915059643955e-05	0.0017334762960672379	0.003907426726073027	9.768486976623535	0.012755072675645351
00:00:20.454436352	0.0018578629093715772	-5.447259439312695e-06	-0.0002482615236658603	-0.033268995583057404	9.795974731445312	-0.010486007668077946
00:00:20.463436544	0.0002444030248332621	0.0002858719334717199	-0.001720276428386569	0.05016915127635002	9.813962936401367	0.0043623195961117744
00:00:20.475436800	-0.0026836551408743635	0.00046854381335557547	2.747932194324676e-05	0.04610101878643036	9.900733947753906	0.029086705297231674
00:00:20.481436928	0.0004868193497421072	-0.0005206290562391922	0.0023786553647369146	-0.00620731757953763	9.775968551635742	0.03086666390299797
00:00:20.637440256	-0.001243322404054381	2.6079062906285906e-05	0.0010017412714660168	0.0060036806389689445	9.768758773803711	0.07735982537269592
00:00:20.643440384	0.0011200795267248377	-6.552968528046115e-06	0.0018881814321503043	0.014511463232338428	9.910855293273926	0.04938362166285515
00:00:20.655440640	-0.000989892185618557	0.0013359273970372334	0.0008957319660112262	-0.018545543774962425	9.744650840759277	-0.005908580031245947
00:00:20.661440768	-0.001727225855877079	-0.000805146705800359	-0.001284626079723239	0.04446282237768173	9.805732727050781	0.0001365104253636673
00:00:20.670440960	0.00034108846709186597	-0.0027604700345300777	-8.391970914090052e-05	0.06727511435747147	9.805331230163574	-0.0012149480171501637
00:00:20.676441088	0.0005971068018587158	0.00019019975562238243	-0.0019332055235281587	-0.027965733781456947	9.846195220947266	-0.06654483824968338
00:00:20.826444288	0.0009371625925885366	0.0005217036477069661	0.0026793708093464375	0.06775043904781342	9.7737398147583	-0.03482421115040779
00:00:20.829444352	3.790626002937474e-05	-0.0024195091146730525	-0.002652140101417899	-0.016550999134778976	9.750085830688477	0.028328824788331985
00:00:20.847444736	-0.002447793973562695	-0.0009863682836048946	0.0005081310519017279	-0.030611928552389145	9.832643508911133	-0.08212848007678986
00:00:21.012448256	0.00042923724656047685	5.238725819432431e-05	0.002721906639635563	-0.013094057328999043	9.823904991149902	-0.031112004071474075
00:00:21.015448320	-0.0003870802323328479	-0.0023655752930544956	0.0013074541930109262	0.054489266127347946	9.786027908325195	-0.052148569375276566
00:00:21.021448448	-0.0005437428629486038	0.0009916518419294908	-9.636511822463945e-05	-0.041759517043828964	9.766149520874023	0.025502195581793785
00:00:21.036448768	0.000389313339535691	-0.0011009505297743425	-0.002994692185893655	-0.04709261283278465	9.800637245178223	-0.03059064783155918
00:00:21.045448960	9.544658284339507e-05	-0.0010315984301023826	0.0011948406463488936	0.05576147511601448	9.788544654846191	-0.0023300638422369957
00:00:21.207452416	-0.00154094201601056	0.001088450541744317	-0.0006050100200809538	-0.040336985141038895	9.787576675415039	0.029429703950881958
00:00:21.213452544	-0.000890487994485922	0.0019394510844967618	0.0007511317962780595	-0.018625179305672646	9.783699989318848	0.03132888674736023
00:00:21.219452672	0.00020446249952128543	0.0008185550058505788	0.003038322553038597	0.021164419129490852	9.788372993469238	-0.01690586470067501
00:00:21.225452800	0.0007027226817333923	-0.0001165058248198301	0.0021798694506287575	-0.034146592020988464	9.84395980834961	0.04299595206975937
00:00:21.231452928	0.002333523690747641	-0.002692849263524328	0.001595845096744597	0.018369045108556747	9.735678672790527	-0.015198150649666786
00:00:21.246453248	-0.0004674362865736856	-0.0013159953569748149	0.0005928078317083418	0.033709052950143814	9.709957122802734	-0.0876169428229332
00:00:21.396456448	-0.00020196942235288756	0.0003903005807905748	-0.003851027460768819	-0.0322444885969162	9.77652645111084	0.053810082376003265
00:00:21.405456640	0.0008160911235498117	0.0006628990476264909	0.00151888991240412	0.007220296189188957	9.833662986755371	-0.016335465013980865
00:00:21.411456768	0.0004880603661766128	-8.80117923707411e-05	-0.0007760057924315333	0.06350856274366379	9.819385528564453	-0.034482188522815704
00:00:21.420456960	-0.0020769150144880786	0.0017127441196016326	-0.0030743260867893696	0.0018984213238582015	9.771608352661133	0.04156292602419853
00:00:21.426457088	0.00034605000079663856	0.0006340995268210128	0.0011040130630135536	-0.006990088149905205	9.865823745727539	-0.004594042897224426
00:00:21.588460544	0.0002848022265132369	-0.002907958235567127	0.0004197581729386002	0.03801126033067703	9.83936882019043	-0.06501024216413498
00:00:21.591460608	-0.0011308472752100006	-0.00016399797922807637	0.0015791202895343304	0.01017769705504179	9.86644172668457	3.161350468872115e-05
00:00:21.609460992	0.0006419452690059171	0.00047185146368698325	0.0023199606221169233	-0.03915329650044441	9.885541915893555	0.02618733048439026
00:00:21.771464448	0.001653250408405982	-0.00011067219483542148	0.002833367558196187	-0.047964178025722504	9.809517860412598	-0.07427060604095459
00:00:21.786464768	-0.001538122204085268	0.001022445091536577	0.0012146088993176818	0.00468482356518507	9.780978202819824	-0.0036284741945564747
00:00:21.795464960	-0.0001825949878659247	0.003231906443858828	1.587687984283548e-05	-0.004629496019333601	9.836350440979004	0.06782105565071106
00:00:21.960468480	-0.0014666769569268599	-0.0003573129407350615	0.0015424990560859442	-0.048841506242752075	9.827032089233398	0.001698208856396377
00:00:21.966468608	0.0010415161811286435	-0.0004742946522065148	0.003641734132543206	0.03347570821642876	9.866816520690918	0.1062079593539238
00:00:21.984468992	0.00250405490775647	0.0010429541534058109	-0.0005130354547873139	0.019002612680196762	9.839095115661621	0.030380386859178543
00:00:22.149472512	0.0024377114456618056	0.0008341807942151382	0.000673876900691539	-0.007064956706017256	9.704258918762207	-0.0024644234217703342
00:00:22.158472704	0.000926319553098254	-0.0014052338711672172	-0.0001348508521914482	0.054544493556022644	9.820899963378906	-0.06853403151035309
00:00:22.164472832	-0.0023903278782492652	-0.0033768824115150316	-0.0014447043649852276	0.020162804052233696	9.734173774719238	0.04362162947654724
00:00:22.338476544	-0.0012444070456078425	0.0032958552427835124	-0.0007558238576166332	0.005250643938779831	9.838729858398438	0.04105313494801521
00:00:22.344476672	0.0006442299196967707	-0.0008171125710696623	-0.001602133852429688	0.11377190053462982	9.815731048583984	0.03027956746518612
00:00:22.353476864	0.0011610975340479836	0.0014799770387134805	-0.001801657839678228	-0.019494526088237762	9.820292472839355	-0.007005016319453716
00:00:22.530480640	0.0024903255831921324	-0.0008101974427454815	0.0001259056298295036	-0.0025427406653761864	9.76729679107666	0.06557512283325195
00:00:22.545480960	0.00024487971647231294	-0.0011903079040103302	-4.6172310248948634e-05	-0.02256152033805847	9.787968635559082	-0.01833297125995159
00:00:22.557481216	-0.002312930315685846	-0.0012632451299332723	-0.0018419084371998906	0.00405215285718441	9.779216766357422	0.01398336049169302
00:00:22.575481600	-0.0016778694847127571	0.002186131775403704	-0.0015332517214119434	-0.0056433649733662605	9.737719535827637	-0.00981209147721529
00:00:22.584481792	0.0028952725548768267	5.450186509457409e-05	0.0006237432826310396	0.01683618500828743	9.85398006439209	0.06398417800664902
00:00:22.755485440	-0.00013893221360576885	-0.0004954266524628446	-0.00017510460747871548	-0.04217430204153061	9.890149116516113	0.08062109351158142
00:00:22.767485696	-0.0013257693647867217	-0.0018405383499093995	0.0007757130078971386	0.04593653976917267	9.677155494689941	0.009186328388750553
00:00:22.776485888	-0.001873568762977995	-0.001547770230075036	0.0032169558107852936	-0.1252611130475998	9.824902534484863	-0.0427410826086998
00:00:22.785486080	0.00017136883949915333	0.0029957302566862958	-0.0014305008808150887	-0.0044977799989283085	9.74331283569336	0.050938982516527176
00:00:22.800486400	-0.0007670899652404858	-0.0036432229727261407	0.0010116839548572898	0.03247460722923279	9.772361755371094	-0.06442718207836151
00:00:22.806486528	0.002254685139330648	0.0031462371070183175	0.00023717331350781024	-0.029612192884087563	9.793008804321289	-0.054681938141584396
00:00:22.992490496	0.00044769498314762874	0.0014163783006615296	-0.004024799447506666	0.07481907308101654	9.788981437683105	0.04576971381902695
00:00:23.010490880	-0.0009590652919834627	-0.0006885707890369639	0.0005585323087871075	0.05684766545891762	9.780434608459473	0.024137241765856743
00:00:23.022491136	-3.0152332630861432e-05	-0.0001374354079353333	0.00022381689632311463	-0.03945349156856537	9.79945182800293	-0.05580129101872444
00:00:23.031491328	0.0004118309440562354	-0.0004784463718288288	0.0006028343923389912	0.009368197061121464	9.82950496673584	-0.02802310697734356
00:00:23.037491456	0.0014369597044313178	-0.0012145554693170533	2.4414697691099718e-05	-0.0005390283185988665	9.775147438049316	-0.03394987806677818
00:00:23.211495168	0.002088967928710006	0.0013612299179903522	-0.0020199469290673733	0.0015687610721215606	9.788739204406738	0.07412673532962799
00:00:23.223495424	0.0007300463472964094	0.0020068467082700985	-0.002230176469311118	-0.07497551292181015	9.811918258666992	-0.040701255202293396
00:00:23.232495616	0.0010133086904423163	-0.0007404087856166706	0.0007060136995278299	-0.004310460761189461	9.883051872253418	0.026996994391083717
00:00:23.241495808	-0.0014862882820418253	-0.0014049591310077057	0.0022711551282554865	-0.005418360233306885	9.823029518127441	0.07096954435110092
00:00:23.247495936	-0.0012240250510623827	-0.0017172759445138917	0.0013193468330428004	0.0069694784469902515	9.724924087524414	0.019679667428135872
00:00:23.400499200	0.0009243066739762054	-0.00011661449852275554	-0.00033793720649555326	-0.010037742555141449	9.786127090454102	0.07721596211194992
00:00:23.412499456	-0.0004083241950249447	-0.0006326250778265939	0.003270993009209633	0.026434822008013725	9.78339958190918	0.03469076007604599
00:00:23.421499648	-1.3171571783643097e-05	0.00011217404872419421	0.0032371305860579014	-0.016785405576229095	9.7854585647583	-0.01855562813580036
00:00:23.427499776	0.000961547877220981	0.00037169761608944383	0.001640727394260466	-0.018235448747873306	9.858928680419922	0.025519130751490593
00:00:23.439500032	-0.000770098661025442	-0.0001701715710560501	0.0011005728738382459	0.0005684368661604822	9.799325942993164	-0.04220496863126755
00:00:23.448500224	0.0035966920983517394	-0.00092951616269878	0.0016857406590133905	-0.007769019342958927	9.759332656860352	0.07021494954824448
00:00:23.619503872	0.0006910846420103536	0.0001952851115738332	0.0015848486218601465	0.05969158932566643	9.777314186096191	0.0745261162519455
00:00:23.625504000	-0.0017715505240013972	0.0015131510980672493	-0.0004227394238114357	-0.037628334015607834	9.827014923095703	-0.02076725661754608
00:00:23.631504128	-0.0003476496061304732	-0.0010850669396795974	0.0020345451775938272	-0.05441096052527428	9.819982528686523	0.007663779892027378
00:00:23.637504256	0.00040413129287826283	-0.0011862400034197316	-0.0004276200197637081	-0.06322126090526581	9.811659812927246	0.013413585722446442
00:00:23.646504448	-0.003855132047039844	9.518634661341194e-05	-0.00034373856033198535	-0.03364642336964607	9.84450912475586	0.0592188835144043
00:00:23.652504576	-0.0008417896609282269	-0.002462313864355598	-0.0023381849750876427	0.0307000819593668	9.822407722473145	0.020697444677352905
00:00:23.808507904	-0.0007756566777354254	0.0014170779567457094	-0.0017593121156096458	-0.010941173881292343	9.778891563415527	0.0028970714192837477
00:00:23.817508096	-0.0036511814835941568	0.0003437748190726444	-0.0017047422006726265	-0.0592418871819973	9.786191940307617	0.0020373098086565733
00:00:23.823508224	-0.001964976094616033	0.0007309188903554633	6.413121445802972e-05	0.054020076990127563	9.789229393005371	-0.00150216743350029
00:00:23.829508352	0.0013266807506332025	0.0007325088908209756	-0.0009567735833115876	-0.11677844822406769	9.787748336791992	0.03973313421010971
00:00:23.994511872	6.009501855059911e-05	0.00046281888617792275	-0.0009920778684318066	-0.022782526910305023	9.866832733154297	-0.010592586360871792
00:00:24.000512000	0.00014554267515249936	-0.002577344775175367	-0.00029117465601302683	0.010148486122488976	9.79627799987793	-0.015891170129179955
00:00:24.015512320	0.00095928633497151	0.0013963292539364949	0.0005163997411727905	-0.029606658965349197	9.801084518432617	-0.032337237149477005
00:00:24.018512384	-0.0024532610699063316	0.000615508873040165	0.0023282465990632772	0.03447605296969414	9.894298553466797	-0.007570022251456976
00:00:24.192516096	-0.0028939768820529952	0.00017500033109805655	1.1921621990040876e-05	-0.0676908791065216	9.859918594360352	-0.0405195914208889
00:00:24.201516288	0.001322896670597218	-0.00036663332602350864	0.0003425460308790207	0.04542551562190056	9.892224311828613	-0.029670385643839836
00:00:24.210516480	-0.0003432393862860425	0.0006664031488134816	0.002602142048999667	-0.032092705368995667	9.872526168823242	-0.07127082347869873
00:00:24.216516608	0.0004915487512951569	0.00040640495254316475	-0.0011272602714598179	-0.01999158225953579	9.688254356384277	0.09884007275104523
00:00:24.222516736	0.0013744701715657339	0.003411599313864793	0.003125636139884591	0.02686615101993084	9.789508819580078	0.017146380618214607
00:00:24.384520192	-0.0007457376489875986	-0.00015241966056513492	-0.0029141739942133427	-0.048465147614479065	9.738973617553711	-0.06600899994373322
00:00:24.390520320	-4.448060675004113e-05	-0.0003566936112229422	-0.0017092012567445636	0.026026874780654907	9.833065032958984	0.01850316859781742
00:00:24.399520512	0.0003987770029814766	-0.00018154079324907515	-0.0004223561263643205	0.047688987106084824	9.796795845031738	-0.03302103281021118
00:00:24.420520960	0.0012753589395904765	0.0023088528495527165	-0.0009254628093913198	-0.03122066520154476	9.86458683013916	-0.058378688991069794
00:00:24.573524224	0.0016767020421573743	-0.00025634578659540865	0.0008446950814686716	-0.04045982286334038	9.854300498962402	0.0453103706240654
00:00:24.576524288	-0.00013636244723984586	-0.0006901100906298206	0.002236549975350499	0.059341296553611755	9.865631103515625	-0.03126825764775276
00:00:24.591524608	-0.0013773712710937634	-0.0009439387405045972	-0.0018215760355815291	-0.041910409927368164	9.786086082458496	0.002327562775462866
00:00:24.762528256	-0.00036820802809616165	-0.0014522256143145904	-0.0019854402635246515	-0.02209176868200302	9.829670906066895	0.02083059400320053
00:00:24.765528320	0.003405058043124698	-0.001154861766820465	0.0017398047493770719	-0.06782197207212448	9.823824882507324	0.013521975837647915
00:00:24.771528448	-0.00034427580279243724	-0.0034421427454554183	0.0007613780326209962	-0.05298051983118057	9.818037033081055	-0.020336095243692398
00:00:24.777528576	-0.0013119161743199602	-0.00032932725034064505	0.00014510727487504482	-0.0026203857269138098	9.841207504272461	0.005761720705777407
00:00:24.786528768	-0.00033695435589124994	0.0005286074837449297	0.0007696030661463737	0.07341130077838898	9.78075885772705	-0.021071255207061768
00:00:24.792528896	0.00011414384759318468	4.5560467612597783e-05	-0.0015438044210895896	-0.07264458388090134	9.716211318969727	0.011946236714720726
00:00:24.954532352	0.0025716142114722952	0.0006297769095062568	0.001579494564794004	0.058350566774606705	9.829092025756836	-0.0015943448524922132
00:00:24.960532480	-0.0026642091255163923	-0.0012641039257623896	0.0007430322584696114	-0.015804756432771683	9.872743606567383	-0.03339851647615433
00:00:24.966532608	0.001053514177026771	0.001678739902587916	0.0002997501287609339	0.11116793006658554	9.81028938293457	-0.07259064167737961
00:00:24.972532736	0.00019956444127073897	0.0009820692311286285	0.0001202619168907404	-0.0031053267884999514	9.779182434082031	0.028473936021327972
00:00:24.981532928	0.0004613097259314583	-0.0004444413399078593	-0.001543346792459488	-0.011251898482441902	9.854467391967773	0.058486733585596085
00:00:25.149536512	0.00027178676070234193	-0.0007579925632790372	0.00046231489977799356	-0.021469170227646828	9.658645629882812	-0.038437023758888245
00:00:25.164536832	0.0024738861099356637	-0.0015543878590442881	0.0009702526731416583	0.025076674297451973	9.818899154663086	-0.08325707912445068
00:00:25.176537088	0.00040415649679543836	-0.0003723875025507704	-0.0021889267954975367	0.05084487795829773	9.871062278747559	0.022155672311782837
00:00:25.188537344	-0.00014572119137683498	0.0009901362890622869	0.0004985429113730788	-0.013090552762150764	9.773660659790039	-0.0179729126393795
00:00:25.200537600	-0.0009626585673069729	0.0013791870977974787	-0.0018473871750757098	-0.026127664372324944	9.745222091674805	0.0006030345684848726
00:00:25.365541120	0.0015757424841174707	0.00207114323976108	0.0010671584168449044	0.01992141455411911	9.784889221191406	0.01638195291161537
00:00:25.368541184	-0.0010791778480162993	-0.0028648345079027755	0.00023573295038659126	0.009197048842906952	9.850754737854004	0.07113447785377502
00:00:25.374541312	0.00133492935826125	-0.0008782387058936701	-0.000796837208326906	-0.05803569033741951	9.869998931884766	-0.039913129061460495
00:00:25.380541440	0.0011475018542731032	0.003515915358463611	-0.0038826540112495422	-0.009679567068815231	9.80469799041748	-0.026773590594530106
00:00:25.560545280	-0.00052672829800231	0.0007833998487576201	-0.0001383386697852984	-0.06770072877407074	9.807422637939453	-0.02702094428241253
00:00:25.566545408	0.0016798596913466081	0.0007439319114445999	-0.00045938670518808067	0.031422149389982224	9.76138973236084	-0.06826186925172806
00:00:25.575545600	0.002341852741363071	-0.0007094586663634226	-0.0015947018982842565	0.05640217661857605	9.756080627441406	0.08228474855422974
00:00:25.587545856	0.0028520005140924677	0.0024323869683093684	6.791445048293099e-05	-0.005553240422159433	9.932897567749023	-0.0679386630654335
00:00:25.752549376	-0.001798281111707367	0.0036214376986271994	0.0015355574432760477	-0.039506834000349045	9.795700073242188	0.06446589529514313
00:00:25.758549504	0.0014664734332362041	0.0009974217345251992	0.004100699443370104	-0.05146963521838188	9.873923301696777	-0.05353591591119766
00:00:25.764549632	0.0013304871824109778	0.0003086256573687598	-0.0021267582196742296	-0.00812302716076374	9.771687507629395	-0.014938476495444775
00:00:25.773549824	0.0034397861306095347	0.0022633239813394206	0.001296884729526937	0.0009151848498731852	9.733458518981934	-0.01228595245629549
00:00:25.944553472	0.0027291877046698556	-0.0019813006557278974	-0.00020143206347711384	0.03001280501484871	9.840593338012695	-0.034710220992565155
00:00:25.953553664	-0.00039243589010966556	0.0022294571344054596	0.00023470970336347818	0.007722319569438696	9.831501007080078	-0.05827445164322853
00:00:25.962553856	-0.001551408102688767	0.000600743102865602	0.0006150662084110081	-0.026349959895014763	9.858820915222168	-0.039010751992464066
00:00:25.968553984	0.0016353585375944004	-0.001019018008349155	-0.00157531991135329	0.041575998067855835	9.833850860595703	-0.050572026520967484
00:00:25.977554176	-0.002546675518107988	-0.0004400241933517799	-0.0005974517553113401	0.031812507659196854	9.802492141723633	0.062391798943281174
00:00:25.986554368	-0.003035746296820618	0.0003014998755197331	3.631923027569428e-05	-0.05205446481704712	9.834893226623535	0.011435750871896744
00:00:26.136557568	0.0019219064703682289	-0.0006922184885234282	0.0019603006076067686	0.07177441567182541	9.74755859375	0.07224738597869873
00:00:26.148557824	0.0021053200904751048	0.00048000769575716105	0.0020641947630792856	-0.02635059505701065	9.75256061553955	-0.02666783146560192
00:00:26.157558016	-0.004183184370351411	0.0016978683369479432	0.000513594364747405	0.1523236334323883	9.8185396194458	0.07898709923028946
00:00:26.163558144	0.0011872448809916005	0.00017307990756941136	-0.00010349009971832857	0.05459846928715706	9.836580276489258	0.019888203591108322
00:00:26.172558336	0.002412454443099521	0.0023013645503915207	-0.0021252785809338093	0.06405946612358093	9.774893760681152	-0.02673167921602726
00:00:26.178558464	0.00012481278796967505	0.0017554372269905463	-0.0015535814454779029	-0.014922336675226688	9.808232307434082	0.036567021161317825
00:00:26.328561664	0.0006617625910328553	-0.0006376690044753895	-0.001140463980846107	-0.009130943566560745	9.806900978088379	0.009994217194616795
00:00:26.334561792	0.0006605218365328239	0.0009941604174918785	-0.0012030265061184764	-0.01961553655564785	9.80954647064209	-0.0024222983047366142
00:00:26.340561920	0.0017374047162482366	0.0014109479915595904	-0.0024390299804508686	-0.019729364663362503	9.820636749267578	0.021452350541949272
00:00:26.349562112	-0.00017164996855372177	0.0013802082930005446	0.002509802347049117	0.03029327280819416	9.723393440246582	-0.0780792385339737
00:00:26.358562304	0.000997931041336231	-0.0014559351885446057	-0.003018232062458992	0.046969350427389145	9.86730670928955	-0.07216741144657135
00:00:26.370562560	0.0024208035171503052	-0.001628869799872552	-0.0010107121197506785	-0.09008020907640457	9.848756790161133	0.04908178374171257
00:00:26.520565760	0.0004229961338458435	7.721492411925566e-05	0.0017132714856415987	0.0432233028113842	9.851701736450195	-0.023473376408219337
00:00:26.529565952	-1.5074634877420843e-05	0.00190044566525736	-0.0007263519801199436	-0.04561500996351242	9.829761505126953	-0.012955721467733383
00:00:26.538566144	-0.0005064470027102305	0.0011811957182607904	-0.00020482848049141467	-0.007560345344245434	9.785758972167969	0.026368314400315285
00:00:26.544566272	0.003265731953131579	0.0012845597183577075	-0.0003669114375952631	-0.027698522433638573	9.840903282165527	0.036378130316734314
00:00:26.550566400	-0.0001442915530171393	0.0005066797265562519	-0.0026481696404516697	-0.007259982638061047	9.771021842956543	-0.003409513272345066
00:00:26.556566528	0.001352636594372414	7.110471315805908e-05	0.0007941132062114775	0.013859068974852562	9.800457000732422	0.0761769562959671
00:00:26.709569792	-0.0005708972024260236	0.00022102558696766492	-0.002068246714770794	-0.09384582936763763	9.921363830566406	0.01283547654747963
00:00:26.724570112	0.0007955211182596014	0.0023507588729507582	-0.0010541215306147933	-0.04813278466463089	9.784013748168945	0.006349582225084305
00:00:26.736570368	5.251117492461903e-05	-8.475195963277373e-05	0.00025912653654813766	0.030146721750497818	9.861289978027344	-0.07967744022607803
00:00:26.742570496	-0.001654145904769577	-0.0002485805644874171	-0.002543668495491147	-0.08648750931024551	9.813072204589844	-0.048924751579761505
00:00:26.754570752	0.0014377477197447643	0.0029574785102404015	-0.003277489449828863	-0.04315147176384926	9.800346374511719	0.036669109016656876
00:00:26.763570944	-0.0013250645864283815	0.0003373586177139833	-0.00013059578486718237	-0.021645108237862587	9.77588176727295	-0.010428252629935741
00:00:26.937574656	0.0022604251131886468	-0.004511150885348831	-0.0008787941769696772	0.012995605356991291	9.74240779876709	0.031437505036592484
00:00:26.943574784	-0.0010648183673149124	0.0023908388056106226	0.0005269459798000753	-0.008539482951164246	9.76523494720459	-0.04082193598151207
00:00:26.955575040	-0.00036335016223547594	-0.0010451062163092837	0.0018198081525042653	-0.00921288225799799	9.815482139587402	0.018398812040686607
00:00:26.964575232	-0.0018527540526813045	0.002745153261373128	-0.0008051983895711601	-0.0028014304116368294	9.814004898071289	-0.029685022309422493
00:00:26.967575296	-0.004042697619599678	-0.00027338788376531455	-0.0004510577127803117	0.07747252285480499	9.852784156799316	0.026367023587226868
00:00:27.126578688	0.00048642938751781745	0.0019233302399761334	0.0001710102369543165	0.004632752388715744	9.861515998840332	-0.007895371876657009
00:00:27.135578880	0.0017435363112488613	0.0017793178512028709	0.0005645843921229243	-0.025659555569291115	9.772375106811523	0.043523695319890976
00:00:27.144579072	0.0009855762324767038	-0.0009433026471861348	0.002908700378611684	0.0036782920360565186	9.797407150268555	-0.04425523430109024
00:00:27.147579136	-0.0007405077488621845	0.0008713080850675061	5.032327680964954e-05	0.025110339745879173	9.83364486694336	-0.1435711830854416
00:00:27.153579264	0.0018585761860484109	0.0024071162287391083	-0.00198787241242826	-0.05397481098771095	9.79767894744873	-0.02689930982887745
00:00:27.327582976	0.0014993895162368044	0.002740413062298979	0.0006761910626664758	0.023496318608522415	9.818303108215332	0.04472239315509796
00:00:27.333583104	-0.0007006238596042766	0.003629286652455415	-0.001676170970313251	-0.02864948660135269	9.711956024169922	-0.030978692695498466
00:00:27.342583296	-0.0019278342518484369	0.0021144020091987507	-0.0005272084381431341	-0.03816971555352211	9.853314399719238	-0.041767243295907974
00:00:27.522587136	-0.0020730809922790304	-0.0014885456813254103	0.0014950104523450136	-0.03473668918013573	9.763145446777344	0.037250906229019165
00:00:27.525587200	0.003756310310261868	0.00014954580083846223	-0.0010422420455142856	-0.06335423141717911	9.734527587890625	-0.08618635684251785
00:00:27.531587328	-0.002161702621681072	0.0008044229424803808	-6.058415601728484e-05	-0.026829134672880173	9.8920259475708	0.015796247869729996
00:00:27.714591232	0.00045763062341193123	0.00148214608898976	-7.073804226820357e-06	0.07035494595766068	9.76665210723877	0.07113149017095566
00:00:27.720591360	-0.00051036903490258	-0.0027210445888095243	-0.0026158152613788843	-0.06996943801641464	9.817338943481445	0.061778027564287186
00:00:27.729591552	-0.00044375019236413376	0.0004123995267099991	-0.0013948420528322458	-0.058827172964811325	9.857893943786621	0.03183786943554878
00:00:27.732591616	-0.0028712551723694578	0.0029727754835284607	-0.0014322615461423993	0.010468557476997375	9.810271263122559	-0.007090939208865166
00:00:27.747591936	-0.00024116369634812312	0.0036846731044597285	-0.001387113006785512	0.02165130153298378	9.809539794921875	-0.10336755216121674
00:00:27.753592064	-2.8109210072233085e-06	-0.0014468355849140033	0.00042438579839654267	0.008111049421131611	9.851613998413086	-0.0017449514707550406
00:00:27.906595328	0.000908237576066129	3.716095935211626e-05	-0.0021053070668131113	-0.04966985434293747	9.84099006652832	0.022866787388920784
00:00:27.912595456	0.001610850201966785	0.0003189426742273673	-0.002625082852318883	-0.031377580016851425	9.783212661743164	0.04969930276274681
00:00:27.918595584	0.0006922336030291246	0.0013146003429091826	3.298375668236986e-05	0.04064484313130379	9.744999885559082	-0.019554995000362396
00:00:27.927595776	-0.001524549108882822	-0.00246033224274746	0.002182182390242815	0.04123293608427048	9.823502540588379	-0.06317979842424393
00:00:27.933595904	-0.0005916887460736706	1.224466274800868e-06	-0.0005297649768181145	-0.03984486684203148	9.8425931930542	0.061514031141996384
00:00:27.939596032	-0.00045233855810893314	-0.0009441969496884093	0.0018084007315337658	-0.08549075573682785	9.759896278381348	0.07298292964696884
00:00:28.101599488	0.000864580142358862	0.0008941859659052744	-0.0007143879192881286	-0.05423609912395477	9.775465965270996	0.012783960439264774
00:00:28.107599616	-5.030765926876652e-05	-0.0006496923207060144	0.001134573365561664	-0.06130283698439598	9.876638412475586	-0.06161421537399292
00:00:28.113599744	-0.0024786670840805545	-0.001472763838221942	-0.0009515988640487194	-0.06664130091667175	9.764578819274902	0.014524036087095737
00:00:28.116599808	-0.0025026914812153354	-0.00013186801979194287	0.0008223570184782147	0.017073770985007286	9.730100631713867	-0.011926630511879921
00:00:28.131600128	0.0006432215301791058	-0.0011572249978535518	-0.001107066054828465	-0.07470294088125229	9.877650260925293	0.023966709151864052
00:00:28.296603648	-0.0003905997003423198	-0.0008284493861474738	0.00022488068498205394	0.06341344118118286	9.751273155212402	0.029309609904885292
00:00:28.302603776	-0.002651349190575458	-0.002693661143978749	0.0014648046344518661	0.03538969159126282	9.78864860534668	0.014524112455546856
00:00:28.308603904	-0.0015723242107307687	0.0010834663361556187	-0.0026188029441982508	0.04620828106999397	9.760421752929688	-0.010366281494498253
00:00:28.314604032	-0.0016103193778073564	0.0011013044230885163	0.0032709911465644836	-0.07348904013633728	9.821486473083496	0.06484061479568481
00:00:28.320604160	-0.0016875140284648314	0.0005965508707112923	0.003622274613007903	-0.04638181999325752	9.770074844360352	-0.012433636002242565
00:00:28.488607744	-5.990874644523368e-06	0.0009247144288628652	0.000647606560960412	-0.00958569347858429	9.884029388427734	-0.002438839990645647
00:00:28.494607872	0.00011428078839144123	0.001751913335198845	-0.0002757513429969549	0.058854762464761734	9.820489883422852	-0.056129105389118195
00:00:28.500608000	-0.0010709626515856161	-0.0017842405987658248	-0.0025504818186163902	0.06612595170736313	9.796784400939941	0.0016045511001721025
00:00:28.506608128	-0.00040400477913153903	0.0004910032393190369	-0.001974403392523527	-0.05742837116122246	9.79150676727295	-0.08450421690940857
00:00:28.512608256	-0.00021830569342655675	-0.0004109322081540421	-0.0007312939851544797	-0.01295161060988903	9.867464065551758	0.0738326907157898
00:00:28.518608384	0.0028301996496045813	0.0001403958839609578	0.0003220747457817197	0.00536973774433136	9.817487716674805	-0.09974965453147888
00:00:28.680611840	7.187545967808378e-05	0.0005263633455860719	-0.0008400448132306337	-0.02579781971871853	9.745512008666992	-0.07726466655731201
00:00:28.686611968	-0.0017800192730030194	0.001325122658187832	-0.0003395536623429507	0.010459698736667633	9.817599296569824	0.0385272242128849
00:00:28.692612096	-0.0009032191158732547	0.0006440253881982818	0.00024673689040355384	0.007147722877562046	9.823933601379395	-0.04110382869839668
00:00:28.695612160	0.00022495216368751986	-0.0011453884700067982	-9.381783456774428e-05	0.009137040935456753	9.857463836669922	-0.025557471439242363
00:00:28.701612288	0.0012216310566762313	-0.002085635559608851	-0.0005724813672713935	0.0005410792073234916	9.774123191833496	-0.044687800109386444
00:00:28.713612544	-0.0016543560344254747	3.2169706998468534e-05	0.0006144452490843832	-0.0310791227966547	9.787181854248047	0.0538407601416111
00:00:28.878616064	-0.0007887102113565578	0.003534361831868376	-0.0005116614047437906	0.011455332860350609	9.847245216369629	-0.030433347448706627
00:00:28.884616192	0.0013493669536435828	-0.0017344014532618866	1.284431891690474e-05	0.03271281346678734	9.788822174072266	-0.029081664979457855
00:00:28.893616384	-0.00036625620881041126	0.000977862738097395	-0.00012094582780264318	0.019253676757216454	9.76814079284668	0.02786862477660179
00:00:28.902616576	0.001052145249257408	-0.0004891121689916298	-0.0009656869806349277	0.04265718162059784	9.864304542541504	0.027902089059352875
00:00:28.908616704	0.0009791233893954978	-0.00187559612558565	0.0020326299127191305	0.026545371860265732	9.875231742858887	0.03441265597939491
00:00:28.917616896	0.0031044017374986634	0.0011813770933321967	0.0009770102333277464	0.020628392696380615	9.803593635559082	0.046152263879776
00:00:29.061619968	0.0018125369530642256	0.0013638546178362623	0.0003303124976810068	0.042166415601968765	9.74499797821045	-0.02616037055850029
00:00:29.067620096	-0.000321785672287844	0.0012204141775391355	-0.0020869371946901083	0.07230730354785919	9.842299461364746	-0.05150439962744713
00:00:29.085620480	0.001381653462583743	0.00014330498643809106	0.0005053349887020886	-0.012891419231891632	9.82890796661377	0.08566777408123016
00:00:29.088620544	-0.0006321980184404327	-0.0003230810444556818	0.0004341946914792061	-0.03154310956597328	9.798397064208984	-0.02224861830472946
00:00:29.253624064	0.0023829443231696114	-0.0005909568327233836	0.0018937672721222043	0.049330130219459534	9.875810623168945	0.005309985484927893
00:00:29.259624192	9.664762516676833e-05	-0.00044896122298545096	-0.0013887142995372415	0.011232873424887657	9.821173667907715	0.011038413271307945
00:00:29.268624384	0.0004843226776463763	0.0009873241023405745	-0.0006258171051740646	0.025460990145802498	9.75930118560791	-0.08314213901758194
00:00:29.277624576	0.00017972724132759882	0.0016796127846709743	-0.00045350813888944685	0.04967862367630005	9.779626846313477	0.03464971482753754
00:00:29.283624704	8.964681152774405e-05	0.0007808759645804122	-0.0007544862455688417	-0.07142451405525208	9.898701667785645	0.0003926580830011517
00:00:29.442628096	-0.0008755988240702225	0.000678089151649113	0.0034045870415866375	5.5921205785125494e-05	9.81860065460205	0.008061940781772137
00:00:29.448628224	-0.00026085991733653085	0.001969541534805979	0.00074485078221187	-0.08144668489694595	9.868887901306152	-0.030466202646493912
00:00:29.454628352	-0.00010020498332978773	-0.0008818196994007275	0.0023218945134431124	-0.0017288785893470049	9.761456489562988	0.012076945044100285
00:00:29.460628480	-0.0008178642168169989	0.0029616650380439417	-0.0019142646342515945	-0.0832085981965065	9.839993476867676	-0.05722074210643768
00:00:29.472628736	-0.00046159398364780085	-0.002314391666998778	0.0012119616148993373	-0.09145964682102203	9.794817924499512	-0.011331424117088318
00:00:29.634632192	-0.00039701785165762143	0.0023949098494149106	0.0010823279153555632	-0.10405272245407104	9.789447784423828	0.01620578020811081
00:00:29.640632320	0.0006355921356478558	-0.002530609844227944	-0.00299269356764853	-0.04728515073657036	9.818801879882812	-0.011306622065603733
00:00:29.658632704	0.0021308117863261923	-0.0012658052192755685	-0.00012016478285659105	0.05776040628552437	9.750285148620605	0.02140977792441845
00:00:29.820636160	-0.0005866973227350189	-0.0005745322024204478	-6.890899385325611e-06	0.006807993166148663	9.84203815460205	0.0010856450535356998
00:00:29.832636416	-0.00038394353790154295	-0.0011920837033294782	-0.0007526939152739942	-0.004117799457162619	9.773564338684082	0.018975218757987022
00:00:29.844636672	0.0023319613971287236	7.286823262768955e-06	-0.0018374287756159902	-0.020498793572187424	9.749490737915039	0.055412035435438156
00:00:29.850636800	0.0025975263994658217	-0.002671558763807331	0.0026895953342318535	0.025498444214463234	9.791781425476074	-0.0819469764828682
00:00:29.856636928	0.001255128052132748	0.0009258310264221683	-0.0002003941626753658	-0.012749210931360722	9.789386749267578	-0.023527326062321663
00:00:30.015640320	0.001315884160856329	0.00011344370332786922	0.0011408779537305236	0.0007993638282641768	9.731635093688965	0.0010232257191091776
00:00:30.018640384	-0.0010543906976929083	0.001070815948793973	-0.0023973232600837946	-0.029639501124620438	9.76035213470459	-0.01609467715024948
00:00:30.039640832	0.0005628662617416905	0.0034047061298287766	0.0007187157752923667	-0.03225135803222656	9.828603744506836	0.023501526564359665
00:00:30.204644352	-0.0004838521857274844	-0.0008256496558651969	0.00023276309366337955	-0.0540379136800766	9.760505676269531	-0.011601639911532402
00:00:30.210644480	0.003553018657537721	0.0003756173490791872	-0.0008449370507150888	-0.03680100664496422	9.899354934692383	-0.061046019196510315
00:00:30.216644608	-0.0023159051928198114	-0.0014009641064085707	-0.0013847753871232271	-0.0011019008234143257	9.901532173156738	0.04508078470826149
00:00:30.228644864	-0.002177343951491095	0.00032203143464991	0.0019665162544697523	0.07739025354385376	9.775228500366211	0.02661643736064434
00:00:30.231644928	0.0013154210607061014	0.0010349935572839632	0.0010804051999002695	-0.03423357754945755	9.733854293823242	0.007856684736907482
00:00:30.405648640	-0.0006713046025945021	0.0005808653612866357	-0.0014050620375201106	-0.0491487942636013	9.74457836151123	-0.0388910211622715
00:00:30.414648832	-0.0007883695801248922	0.0009451216273255005	0.0003082656767219305	0.024600699543952942	9.814435005187988	-0.042487792670726776
00:00:30.420648960	-0.0005895092766260876	0.0012242995389051094	0.0006149201653897762	0.009698686189949512	9.874618530273438	0.07140936702489853
00:00:30.426649088	-0.0012292654867744222	0.000903089700756903	-0.0031440083403140306	-0.02842819131910801	9.742907524108887	0.04434298723936081
00:00:30.435649280	-0.0003545541406603678	-0.0006355483247653291	0.00030118360882624984	-0.018431805074214935	9.784830093383789	-0.03622637316584587
00:00:30.450649600	-0.004205749850673057	-0.0008449523057543382	-0.0007841121405363083	0.026535779237747192	9.761597633361816	0.06889688968658447
00:00:30.594652672	0.0006766288858378158	0.0015213170508167997	-0.00042579631553962827	0.08815629035234451	9.787190437316895	0.003511510556563735
00:00:30.600652800	-0.00374645066070316	0.0022975999117142813	-0.0015108821680769324	-0.04318734630942345	9.821432113647461	-0.04459436610341072
00:00:30.606652928	0.0005371692674705611	0.002087071416924085	0.000895629869773984	-0.08523277193307877	9.781800270080566	-0.027382414788007736
00:00:30.615653120	-0.001717578518157281	0.0014866329683236137	0.001413032878190279	-0.10114144533872604	9.830558776855469	-0.040958426892757416
00:00:30.621653248	0.0013453367716172561	-0.0016788124385975942	-0.0004324550391174853	0.041878826916217804	9.789673805236816	-0.03162214159965515
00:00:30.789656832	-0.0018338580997189656	-0.002687282282834564	-0.0026381961070001125	0.06411349028348923	9.741401672363281	0.016361568123102188
00:00:30.792656896	0.0018290048316592202	0.0008774699480518058	-0.0013592360774055123	-0.04533693939447403	9.825839042663574	0.04098358005285263
00:00:30.798657024	-0.0024755667112296596	-0.0004971184581272945	0.0007218883256427944	0.0307018980383873	9.861133575439453	-0.0414641797542572
00:00:30.804657152	-0.0006604374069249405	0.00022042270111975368	-0.0012973352568224072	-0.06622330844402313	9.75334358215332	0.007468454539775848
00:00:30.816657408	-0.003210101291490175	-0.0014229656709112868	0.0002515057276468724	0.023552270606160164	9.814508438110352	-0.04449136182665825
00:00:30.981660928	-0.00024702712865491943	-0.003058523992051993	0.0038213273510336876	-0.032304875552654266	9.75891399383545	0.02032351866364479
00:00:30.987661056	-0.000941094142337717	0.0005593330087385431	-0.00017803577065933496	0.02225511148571968	9.806294441223145	0.050709620118141174
00:00:31.002661376	-0.0010264386804303303	0.0025506747141725676	-0.001942749717272818	-0.034918367862701416	9.783373832702637	-0.011602089740335941
00:00:31.005661440	-0.0006284600388718917	-0.0014960209419705615	0.00021719234064221382	-0.03350590541958809	9.807045936584473	0.010762986727058887
00:00:31.011661568	0.0019102664515847191	-0.002242643041511689	-0.0022856267169117928	-0.03805629909038544	9.81863784790039	-0.04837879538536072
00:00:31.176665088	-0.00041007365537752943	-0.0004266016522642866	-0.00024304207181558013	0.05397975444793701	9.770612716674805	-0.042663078755140305
00:00:31.182665216	-0.0012972161788022294	0.0011597583024076476	-0.0019964042585343122	-0.008275680243968964	9.798879623413086	0.014362966641783714
00:00:31.188665344	-0.0002899515532883032	-0.0012468041432776198	0.0005546954926103354	0.004300547763705254	9.69724178314209	0.11459250748157501
00:00:31.203665664	-0.0006568441898090913	0.0011718154372892633	2.370644324400928e-06	-0.0011814727913588285	9.799717903137207	0.00048745813546702266
00:00:31.368669184	-0.0001276391706889643	-0.0015828100777917251	-4.844316572416574e-05	-0.008374601602554321	9.75251293182373	-0.006597427651286125
00:00:31.377669376	-0.002230737140355088	-0.0006292702792898462	-5.569183485931717e-05	0.04544966667890549	9.819197654724121	0.018254850059747696
00:00:31.386669568	0.001470864735590838	-0.0026895456295215232	0.0005609882064163685	0.007788797840476036	9.851511001586914	0.004937122575938702
00:00:31.392669696	-0.0004203106075985505	-0.0002030484948527709	0.0006714143673889339	-0.0027431356720626354	9.78809928894043	0.010043172165751457
00:00:31.398669824	-0.0008585359467653705	9.378505902255994e-05	-0.0006719328812323511	-0.047517500817775726	9.76047134399414	-0.02866322360932827
00:00:31.404669952	0.00104959587012472	-0.0028061637468390806	-1.1421372619224712e-05	0.0021467991173267365	9.773798942565918	0.002165737096220255
00:00:31.590673920	-0.00046677970415858166	0.002058209963167395	-0.0007173627382144332	0.03496440500020981	9.797765731811523	0.02172110043466091
00:00:31.596674048	0.0009461276783147679	-9.164399406748716e-05	-0.001496824435889721	0.0017437658971175551	9.84335994720459	0.05331529304385185
00:00:31.608674304	0.0012996569127315507	0.0005714229727409139	-0.0013030462432652712	0.060068584978580475	9.873401641845703	0.08543992042541504
00:00:31.614674432	-0.0018095781709527746	-0.0011077426653110132	-0.002078383695334196	-0.06348108500242233	9.83576488494873	-0.0013733591185882688
00:00:31.617674496	-0.001508247122121431	-0.0012861245823778853	-0.0021835644729435444	0.0036792182363569736	9.863725662231445	0.0211070217192173
00:00:31.782678016	0.002252946127253197	2.4071440811559273e-06	0.0010953062446787953	0.0418103002011776	9.736830711364746	0.012011745944619179
00:00:31.785678080	0.0004747046183800177	0.0016271814191959157	-0.0026100974064320326	0.07571262121200562	9.887274742126465	0.0035425296518951654
00:00:31.791678208	-0.00020796524798443155	0.0007682019449084356	0.0018771057948470116	-0.059827499091625214	9.846263885498047	-0.014705547131597996
00:00:31.797678336	0.002315040895762466	0.00038840746393085566	0.00029027098207734525	0.01421516202390194	9.79072093963623	0.03540574759244919
00:00:31.809678592	0.0020181289725476727	0.0014886679081491485	-0.0020636089611798525	-0.000824871938675642	9.79800796508789	-0.007073123939335346
00:00:31.977682176	0.00017796641592922075	0.0018159735435865178	-0.004138690885156393	-0.02392016351222992	9.915209770202637	0.06646966934204102
00:00:31.980682240	0.00466284154360237	0.0011394844576961651	-0.0019351161317899823	0.019109506160020828	9.746194839477539	-0.0019363663159310818
00:00:31.998682624	0.0009397015525499211	-0.002512628100787912	-0.0034606282133609056	-0.04711340367794037	9.874444961547852	0.12634074687957764
00:00:32.007682816	-0.00010639148270656902	5.866639085703638e-05	0.004019803833216429	-0.012546880170702934	9.843536376953125	-0.006729671265929937
00:00:32.025683200	-0.0007767366626760139	-0.00037582061949527714	-0.0012650868156924844	-0.04947798699140549	9.824193954467773	-0.0915229395031929
00:00:32.034683392	0.0003256065971689151	0.0029830344673491375	-0.0003217219782527536	0.09076724946498871	9.866326332092285	-0.0037345923483371735
00:00:32.205687040	-0.0002992336961435302	0.0006077499082557216	-0.0016677880194038153	-0.03820318356156349	9.749558448791504	-0.01291390135884285
00:00:32.211687168	-0.00033843725426068144	-0.004055528324072872	0.0015461399452760816	-0.09554440528154373	9.79063892364502	-0.021378234028816223
00:00:32.220687360	-0.0013038963227993026	-0.001280302186472033	-0.0024658842012286186	-0.0479157380759716	9.789011001586914	-0.008090191520750523
00:00:32.226687488	0.002014244193258308	-0.00021372046202762876	-0.000768562953453511	-0.020538117736577988	9.843149185180664	0.02224033512175083
00:00:32.232687616	0.0019165018890524134	0.0023231875337905543	-4.211680425214581e-05	0.0251388568431139	9.788196563720703	-0.05255773663520813
00:00:32.241687808	-0.0003901208259159847	-3.231975742258954e-05	-0.0024632494896650314	0.0346517413854599	9.834667205810547	0.04051828756928444
00:00:32.394691072	0.0017446391135925278	1.972327200470601e-05	0.00025702916900627315	0.0250125452876091	9.852466583251953	0.04741508886218071
00:00:32.397691136	0.00014603886635795621	-0.0005215704487391457	-0.001110073528252542	-0.03923056274652481	9.863533973693848	0.012817536480724812
00:00:32.418691584	0.0005240209426736311	-0.0038380794040613515	0.0014621069421991706	0.011238194070756435	9.87270736694336	-0.0030201058834791183
00:00:32.586695168	0.0010346406922215447	0.0008801397006272629	-0.0006173317087814212	-0.0015512274112552404	9.756094932556152	-0.0003051212115678936
00:00:32.589695232	-0.0029261794555461183	0.001236768434780027	-0.0007510647992603481	0.014137537218630314	9.871105194091797	0.028999436646699905
00:00:32.607695616	-0.0019246803279495016	-0.00048627448731443737	0.0007456361199729145	0.0010061506181955338	9.871023178100586	0.0350179560482502
00:00:32.613695744	-0.00010309985403382766	-0.0017441684659325227	-0.0016088082920759916	-0.06355620920658112	9.83211898803711	-0.023735633119940758
00:00:32.778699264	-0.0005890486211976184	-0.002123909657796536	-0.002818322740495205	0.0010298679117113352	9.830135345458984	-0.004879061598330736
00:00:32.793699584	-0.0003162555952550991	-0.0025936641078197105	0.0014335946179926395	0.02476998046040535	9.817578315734863	0.03594640642404556
00:00:32.799699712	-0.0013546018311282769	-0.00045338704248300645	-0.0012892152881249785	-0.011337368749082088	9.766141891479492	-0.04715048149228096
00:00:32.805699840	-0.0022248015887564197	0.0022735936753697054	-0.000436366448411718	0.005907997488975525	9.862861633300781	0.03269261121749878
00:00:32.811699968	-0.005055267844302036	0.0006464317511081054	-0.0014461781829595566	0.022528983652591705	9.82392406463623	0.01996573992073536
00:00:32.820700160	0.001195350181358479	0.0012191013619548931	-0.00021175849542487413	0.023457536473870277	9.748462677001953	-0.0342356376349926
00:00:32.973703424	0.0010399372401187048	0.0014928483823559537	0.002436924958601594	0.008261129260063171	9.804765701293945	0.012410694733262062
00:00:32.979703552	0.00043366184369715316	-0.0037389471009128435	0.0020171969663351774	0.033184848725795746	9.808923721313477	-0.041330114006996155
00:00:32.985703680	-0.000252461221254818	0.0034986467752850907	0.0017595384269952774	0.03256537765264511	9.871355056762695	-0.0014098447281867266
00:00:32.997703936	0.0018537033899227008	0.002569138417044963	0.0035356073640286922	0.005497385747730732	9.771027565002441	0.03009822778403759
00:00:33.006704128	-0.000626096749631144	-0.0019315724540256605	-0.002549555152654648	0.0194505974650383	9.802786827087402	-0.012614416889846325
00:00:33.159707392	-0.001206390225281395	-0.0007095632073224232	-0.00020449081785045564	-0.10833077877759933	9.854043006896973	-0.042545825242996216
00:00:33.165707520	0.0002654422275261806	-0.0010757980681710586	-0.00011935306974919513	0.004593372344970703	9.880762100219727	0.129536435008049
00:00:33.180707840	0.0008828380811499284	9.75397696556348e-05	-0.0014095428632572293	-0.04294278472661972	9.838763236999512	0.0061843800358474255
00:00:33.351711488	-0.00029785050749724345	-0.0022589353658013685	-0.0008036699146032333	0.026534857228398323	9.810588836669922	-0.010999472811818123
00:00:33.354711552	0.003063340889337085	0.0005022574577260121	-0.0019182373071089387	0.029212551191449165	9.787066459655762	0.04072466120123863
00:00:33.360711680	0.0012040904108906016	-0.00319839793254963	-0.0008846654091030359	-0.048787590116262436	9.782554626464844	0.014782090671360493
00:00:33.366711808	0.001654558101716064	-0.0008187982067220554	0.001709626754745841	-0.03189094364643097	9.853659629821777	0.027104832231998444
00:00:33.372711936	-0.00099483972038088	0.0011693575605995312	-7.996819476829842e-05	0.09014631807804108	9.786144256591797	0.02407432347536087
00:00:33.378712064	0.002937945056753777	0.0014629820315412536	0.0007875403389334679	0.014101451262831688	9.882061004638672	0.01516064815223217
00:00:33.384712192	0.0017357155299285278	0.0020852567348874466	0.001156277023255825	0.05812985077500343	9.785881042480469	-0.011598696000874043
00:00:33.531715328	-0.0009441592413460984	0.0003136656550004437	0.0007697283872403204	-0.010433719493448734	9.78612995147705	0.0080792848020792
00:00:33.537715456	0.0006503123292239235	0.0009497835953033819	4.822529081138782e-05	-0.026828769594430923	9.83830451965332	-0.01866639032959938
00:00:33.546715648	4.6390811046692894e-05	-0.0001297070603805304	-2.9050157536403276e-05	-0.06671606004238129	9.792201042175293	-0.03814801201224327
00:00:33.552715776	0.0019528691042685732	-0.0009434246504434094	-0.0020163296721875668	-0.04601244255900383	9.726150512695312	0.007560857106000185
00:00:33.561715968	0.0007376966383779274	0.00035018409371965673	-0.0016602524556219578	-0.07552678138017654	9.791730880737305	-0.051984503865242004
00:00:33.723719424	0.002251913756179236	-0.0018116529145964131	0.0006391562055796385	-0.017072677612304688	9.757009506225586	-0.026760080829262733
00:00:33.726719488	-0.0006911117382807805	0.0025279381033278363	-0.0018175283912569284	0.023675523698329926	9.828904151916504	-0.05444897711277008
00:00:33.915723520	4.365647025950372e-06	-0.00016695260009604398	0.0006641152431257069	-0.003828265005722642	9.782198905944824	0.006843401584774256
00:00:33.921723648	0.0014775100714066848	0.0014635047363362565	-0.0022787670604884624	0.026410752907395363	9.847197532653809	0.018098805099725723
00:00:33.933723904	0.0012000712883198485	0.0009590028156771615	-0.0014014174230396748	-0.012597561813890934	9.768938064575195	-0.020565617829561234
00:00:33.936723968	-0.0006887708589894845	-0.00010135242072741393	0.00020732267876155674	0.008790943771600723	9.855566024780273	-0.02319246530532837
00:00:34.110727680	0.0005007524884311335	-0.002595656206806813	-0.0017350895795971155	-0.008182029239833355	9.798823356628418	-0.03062991425395012
00:00:34.113727744	0.0004996379281399624	0.0005725150648749724	0.0024489103816449642	-0.0007596602663397789	9.732819557189941	0.047827597707509995
00:00:34.134728192	-0.001747369548258759	0.0003393265896256372	-0.0005496044177561998	0.02324405126273632	9.771077156066895	-0.0251464881002903
00:00:34.305731840	1.6956957249747708e-05	0.00204080470840105	-0.0037140673957765102	-0.01590224727988243	9.823941230773926	0.021697232499718666
00:00:34.308731904	-0.0011477011870121732	0.000925304538129206	-0.000513981853146106	-0.009505683556199074	9.871594429016113	0.014040796086192131
00:00:34.314732032	0.0010466043455997333	-0.0004139681451243058	0.0001025021992973052	0.056287236511707306	9.789441108703613	-0.032594844698905945
00:00:34.323732224	0.0004841062324592696	-0.001212724605550681	-0.001653360202908516	0.012345111928880215	9.807183265686035	0.04729367792606354
00:00:34.494735872	-0.0023801766950166	0.001656344737882103	0.0031110362615436316	-0.003983585629612207	9.817317008972168	-0.024347534403204918
00:00:34.497735936	-3.140886868295807e-05	0.002407852439234342	0.0030458259861916304	-0.010938899591565132	9.799714088439941	0.003443389432504773
00:00:34.503736064	-0.0010828385278111472	-0.00022424600783145878	0.0010462075006216764	0.008784670382738113	9.894086837768555	0.02722303569316864
00:00:34.509736192	-6.76075217890701e-05	0.0020987013075745957	-0.0012329872697591782	0.017513670027256012	9.797784805297852	-0.06888090074062347
00:00:34.515736320	0.0005586403273517118	9.693322763902243e-05	-0.0024737147614359856	0.06763595342636108	9.808294296264648	-0.05413242056965828
00:00:34.521736448	0.0014626065819064006	-1.2705310921807616e-05	0.0006512741674669087	0.007273170631378889	9.79437255859375	-0.009673689492046833
00:00:34.527736576	0.00407761101056876	-0.0004593789973050997	0.0007229376933537424	-0.02001015469431877	9.810638427734375	0.017443159595131874
00:00:34.689740032	0.0005944841974885987	-0.00044186646581969116	0.0020794100128114223	0.08663620799779892	9.793713569641113	0.03891092911362648
00:00:34.695740160	-0.0019752993396943584	0.002148329159269418	-0.0004911302239634097	0.01594451628625393	9.815803527832031	-0.0209403857588768
00:00:34.701740288	0.0027127556819939837	-0.0032471277564518793	-0.002399021526798606	-0.03368552774190903	9.777003288269043	-0.002851122757419944
00:00:34.707740416	0.0029945685379678235	-0.0003291810618002609	0.0004800520255230367	0.06137331947684288	9.81728458404541	0.12122593820095062
00:00:34.713740544	0.00177650454831364	0.002517762240046944	0.0008517758105881512	0.012831048108637333	9.846054077148438	-0.09419980645179749
00:00:34.719740672	0.0003754088099120037	0.003698539100611891	-0.0008902937406674027	0.004293152131140232	9.804059028625488	-0.003512684488669038
00:00:34.881744128	0.0011206859341362342	-0.0005331269977369056	-0.0014440928352996707	0.08689723908901215	9.797065734863281	0.047206174582242966
