# time_s	timestamp_ns	wx	wy	wz	ax	ay	az
0.002724	1787824723191108352	0.0022300724279112824	-0.003694500271861797	0.0004164025261134995	0.09524040429833153	9.91296497990175	-0.06207033085949334
0.007339	1787824723194108160	5.258356650426317e-05	0.003137496515955738	-0.0023432467407396265	0.05557443512413848	9.819621304040043	-0.12649825528367672
0.015047	1787824723203108352	0.0031020070558495628	-0.0011729341366720947	0.004498476717124488	0.007273795816073261	9.79764678780199	-0.026091146632164625
0.018448	1787824723206108160	0.0008577449911059139	-0.00014190158894114018	0.002014258103045433	0.060251652651856225	9.837451726481763	0.03342648965601247
0.023904	1787824723212108032	-0.0025429624650716858	-0.0017571894702516067	0.0006086164988743009	0.05139332340220737	9.892780840916537	-0.05152029194190523
0.027244	1787824723215108096	-0.0023325191861497912	0.001073160737686399	-5.2321487896717116e-05	0.02070564870540507	9.869011389838029	0.03527387009739922
0.031588	1787824723221108224	-0.0009598175203703058	-0.0008270901045222101	-0.0008540667105434646	0.06812127651081812	9.8566933055024	-0.022470734744996997
0.035188	1787824723224108288	-0.0008226211683647469	0.0006245939427836181	-0.0015117576726638433	-0.05341753629439888	9.83805223052796	-0.01652286590757923
0.043281	1787824723230108160	0.001788889880583851	-0.0013911337585107925	-0.001276510181351527	0.08425225396177766	9.847228223077554	-0.031370973864372154
0.048414	1787824723236108288	7.498114701330739e-05	-0.001380149590188646	-0.0038415824044277804	0.04401993178074996	9.851115904859304	-0.06183957859545466
0.050896	1787824723239108352	0.0033593778983158295	0.0013925935449764068	0.0009532564452160364	0.010978298396511852	9.791938521194986	-0.08328432810465336
0.059741	1787824723248108032	0.0031601586124883094	0.002477522435441692	-0.0028715191350396087	0.02945701974426487	9.842363108264928	0.011149727773379386
0.064886	1787824723254108160	0.0005495501726227532	-4.251405480921884e-05	-0.0006240460543602052	0.04564394781172589	9.844149756881409	0.01141027474811454
0.068071	1787824723257108224	0.00039991128049706224	0.001179357253879286	-0.0008932230798353718	0.06256649205673911	9.785484764640117	-0.007617912192770127
0.072452	1787824723260108288	0.00037497511168012976	0.004634412522101538	-0.0020635114049144198	0.08813563690329515	9.860696247968837	-0.02694238298530494
0.075880	1787824723263108352	0.0015622042923014727	-0.00023874476533223125	0.0007306084009118343	0.038966135041471776	9.792249948612731	-0.05538243803571381
0.080923	1787824723269108224	0.002115593470980001	-0.0014708926976658235	-0.0019917919634607844	-0.0083394326193975	9.829932147330778	-0.049921549968582904
0.087533	1787824723275108096	-0.0017719887941663411	-0.0012416315963902648	0.0007369653455061233	0.08497045341967918	9.754386247449542	0.03440768371404909
0.092821	1787824723281108224	0.0004334096219270327	-0.0008386461888260041	-7.800843527569316e-05	0.013581623673826166	9.816485395048273	-0.08188497358220012
0.098577	1787824723287108096	-0.0003734498169744355	0.0026951354794136485	0.002965263219084878	0.023644630641176244	9.828325280706466	0.03145721643000898
0.102681	1787824723290108160	0.0012343186224177537	-0.0005551075319192667	-0.0009709833132869091	-0.011204780173657905	9.83897012237017	0.032871272215979505
0.108274	1787824723296108288	0.0036376310212970268	0.003403361990715633	-0.0006159292082259854	0.049539011205640304	9.865207131960577	-0.04840313329781583
0.114271	1787824723302108160	-0.0014706814888863968	0.001960649188190709	0.0006316952015204756	-0.05134404130661496	9.822545088759917	-0.06429702295077885
0.114771	1787824723302108160	-0.0024675145007400177	-0.0015651478845048407	0.0024754367534298542	0.012645415715600319	9.77586222648688	-0.012876645441629045
0.120932	1787824723308108032	0.0012814626637367179	-0.0008224757156865437	0.000634584170731988	0.03364247377236086	9.820547097495961	-0.014331379129329096
0.126993	1787824723314108160	0.001978277995574131	-0.0010059729319739181	-0.0009841385183853944	-0.005032266977578477	9.861248522498318	-0.0020556211959476753
0.132621	1787824723320108288	-0.0011050076392080184	0.0005874052192952128	-0.0035763030890525326	-0.03929879273797553	9.85168879918287	-0.024204212086744913
0.139323	1787824723326108160	0.0025365679574519675	-0.0006212283004063247	-0.0021730259137906316	-0.006790935245921795	9.80692168718182	-0.06359122774752962
0.144019	1787824723332108288	-0.00039975183988904243	-0.0008826971485635005	0.0017995466033904988	0.04951116830124195	9.821680654244972	-0.08755439868590582
0.145912	1787824723335108352	0.0028119754832112752	0.0008876397653202236	-0.0016469001098872857	0.04007749784295055	9.825590192887438	-0.06863004992328532
0.152282	1787824723341108224	-0.0005048197886151049	-0.001926572314903319	-0.00014166107915106768	0.005399582062650069	9.81875275708281	-0.05219489981851738
0.155649	1787824723344108032	-0.0018438790006666628	0.0018840605536910569	-0.0003141322709812943	0.07543611761426816	9.78759716082192	-0.006674191206381588
0.160186	1787824723347108096	0.000518643605235247	-0.0005257801957482969	0.0013291283678228591	0.057355054302356503	9.86382769983813	-0.014950120290029921
0.166923	1787824723356108288	0.0004383306984282614	0.0002460589603210984	0.0026574070336896015	-0.015947191139715225	9.854674528296652	-0.09055600294064614
0.169841	1787824723359108096	0.00023985893676805806	0.0016452780232630432	-0.001930944523130961	0.013720043892645872	9.752171725655513	0.0019526072979744354
0.176645	1787824723365108224	0.00023339656696577785	0.0006163164757914786	0.0010399717410679154	0.07052217112650544	9.814021615681645	-0.008197041416158263
0.182493	1787824723371108352	-0.0011561386604602764	-0.001972365580378621	-0.0007390004452568299	0.03197946817562104	9.781417035472382	-0.06874067854011193
0.186761	1787824723374108416	0.001569280868200315	0.0004590846670560658	-0.0022053859762652685	0.05932850287427935	9.840236762517844	-0.03895310301488544
0.192980	1787824723380108032	0.0011971162122777252	0.0004911292130366049	0.0036040655858365486	0.012533782086825266	9.855578172206979	-0.042018883135853724
0.195415	1787824723383108096	-0.0018933999736738562	-0.00027420610922093247	0.0005278504810434497	0.012046670886501593	9.809363960668474	-0.024299704477369247
0.201448	1787824723389108224	0.0017597130655289048	0.0017369003415376304	0.0006978465548976494	0.04161413599515841	9.7641583211185	-0.007925427186132341
0.210303	1787824723398108160	0.001191866339710187	-0.0006011292455723652	1.5640756394391572e-05	-0.009075944071309294	9.890853592610517	-0.003345114536903525
0.211684	1787824723401108224	0.00169936234520639	0.002951366697886567	0.00044933511531277954	0.07018479274015207	9.831260041151419	0.061866612487070316
0.218956	1787824723407108352	-0.0010972816783268978	-0.0018446970040971473	0.0008385682665373008	0.03665289271697192	9.807516497273362	-0.0350350349480683
0.223434	1787824723410108160	0.0008543304146829878	-0.00022805931620829267	0.0014070601735763084	0.0697234542168195	9.825872202917916	-0.06320668184119448
0.228251	1787824723416108032	0.0037094442376977136	0.00010128450597527871	-0.0021492924814886876	0.030446871473443344	9.85491063370404	0.005330470234785282
0.231271	1787824723419108096	0.0022453160559555117	0.0019740882573056014	-0.00134815685311519	-0.009135262028755281	9.921108841625777	0.03126005901990856
0.237598	1787824723425108224	0.003749309656240218	0.0016604463555323057	0.002897882427186446	0.04675614056627468	9.860672413575276	-0.009257240719635665
0.243379	1787824723431108352	-0.001498470856908061	-0.0007260471419168384	0.000610807794164036	0.0655665312631732	9.734130108872034	-0.019085712823392557
0.247527	1787824723437108224	-0.0015924421976018148	0.00021032853160482288	0.0023376252801398695	0.05238801731633595	9.867687501415306	-0.005177521543801043
0.251734	1787824723440108288	0.002355354864463892	-0.0014916561511078763	-0.0005781609495490189	-0.021966016325955073	9.728060462405976	-0.023512606309911727
0.254691	1787824723443108352	-0.0038382420676711664	-0.00042964476385685935	0.001838482176238283	0.09824539829562823	9.824103592652762	-0.03927740889577887
0.263455	1787824723452108032	0.00045568712986242716	-0.0009501701490712646	0.001394088915453672	0.05325876675502775	9.94734521442612	0.010580732508028393
0.264858	1787824723452108032	-0.00249712790635421	-0.0014599693886623037	-0.0008705876045159078	0.04849064719357832	9.798907360975381	-0.047703062703642336
0.273455	1787824723461108224	0.002034291990280889	-0.0003567760248865832	0.00018226851554858963	0.04236440992960499	9.866032207303046	-0.06778788722271453
0.277708	1787824723467108352	-0.0013164965806932967	0.000879401349576946	0.000496887832193347	0.042025293659932544	9.812058268639277	-0.06558771234054028
0.281308	1787824723470108160	-0.0005882534495321841	0.0036703470819141274	-0.002756794638785884	0.047283234901068796	9.8106625507267	-0.00018295841501216395
0.286504	1787824723476108288	-0.0030153622055576882	0.0006997484301202682	-0.000515969413720663	0.03989734248124649	9.84332052118866	-0.07138628742804115
0.293190	1787824723482108160	-0.0002504473956841603	-0.0005265011295853079	-0.0008820980344154234	0.007821407172706036	9.804168488416348	0.004704894888516407
0.299613	1787824723488108032	-0.002642638277080275	0.002191003192598234	-0.0003815402559312623	0.06664217556150115	9.842160288155297	-0.06769512820989852
0.301048	1787824723488108032	-0.000248105777929547	-0.00034428637190668987	-0.0010263136828032753	0.036242188940555094	9.775685772848885	-0.0011578785251675563
0.307165	1787824723494108160	-0.0005200237978763075	-0.0035688854913754533	0.001753886959611908	-0.023133650458351043	9.790938223306147	0.001958912087226424
0.312246	1787824723500108288	0.0010980214674277304	-0.0004824972178643545	-0.000196162842129804	0.0329526772005431	9.802943567676062	-0.09065108465913135
0.317947	1787824723506108160	0.0006736235882878522	-0.0029650934782490556	-0.00014971906740703238	0.028131528302751483	9.837521298496224	-0.02980408882544256
0.323828	1787824723512108032	-0.001280625563754227	0.0011705925781124202	8.936686841534347e-05	0.0046447827201338415	9.840815148228236	-0.034346104385952675
0.326428	1787824723515108096	0.00026218637100840225	-0.0005241755346510519	-0.0010001353462079302	0.0342267607303605	9.823050020525674	-0.030977055132293277
0.334763	1787824723524108288	-0.0004334548435564809	0.0008006864621248029	0.0011942896774915196	0.007291179281807291	9.768080099702507	0.002714791784574587
0.339471	1787824723527108096	0.00044961458384715176	-0.000539224122956053	0.003260173706699224	-0.0038602939184628274	9.864979105415454	0.03216441970884976
0.345252	1787824723533108224	0.003262598463914965	0.0019712521909013726	-0.002369261269532623	-0.036156985993695795	9.761444519596074	-0.0487955918584819
0.346724	1787824723536108288	-0.00017776818219187657	0.0026775440708481017	-0.0015012599558675145	-0.03885462186020984	9.825096608163419	-0.04555696343203987
0.351259	1787824723539108352	0.0008501492194168832	-0.0010612035960143225	0.002337358458583186	0.030348727971649156	9.795548730626571	0.010904674511406871
0.357280	1787824723545108224	0.0015666588577790998	0.001080086741579111	0.0029039503409991094	-0.04836542587648432	9.775684764578777	-0.017259080241691385
0.361389	1787824723548108032	0.0015881074758646316	0.001687566733119878	-0.0013992581681074381	-0.03713743632165427	9.804044716545283	0.045016608995244733
0.366311	1787824723554108160	-0.0016609605129015456	-0.000853323950374837	0.0013621315186560122	-0.03778503925785286	9.81902099561467	-0.0456748774349331
0.372162	1787824723560108288	0.000306440776168496	0.0009143600903048695	-0.0006234144653771101	0.06394259394051405	9.86320051763011	-0.01772849941191875
0.377610	1787824723566108160	0.0003976114504782773	0.0006085726654457041	-0.0023829623232365133	-0.0042904867637769475	9.844899457489117	0.04736868969968287
0.380966	1787824723569108224	0.0006988383398991627	0.0008425911059838076	0.001425889255872093	0.0033561415458569985	9.88253809188933	0.014076501040002236
0.386420	1787824723575108352	0.0011130009366762084	0.0027740747915051354	-0.0023798061425461445	-0.04535270268696995	9.816565863099216	-0.0813491994640908
0.393702	1787824723581107968	0.001348832863800086	0.00031048109981793987	3.2988085423998296e-05	-0.0488919517219117	9.842381609102414	0.0012065496594918061
0.398245	1787824723587108096	-0.0017709674457879374	0.0013660657359359117	-0.001865892764697451	0.032046841888033036	9.79486227905458	-0.04383043538861305
0.403277	1787824723590108160	-0.0011447897357757901	-0.0011031540650988786	0.0008077923089217715	0.04628470683895723	9.912997851905725	-0.11451270348251366
0.408222	1787824723596108288	0.001477546723494526	0.001527854066260661	-0.0020357079861178544	0.013156102056549511	9.813982940988813	-0.07875499957096518
0.410565	1787824723599108096	-0.003010498704724373	0.0005555314306329129	-0.002479801672807538	0.0415031963338927	9.737110280320236	-0.0022871632804092115
0.415772	1787824723605108224	-0.0011638639565232872	0.0016139376858519876	0.003739682451768268	0.042769172773658666	9.775911424803285	-0.07837068213457063
0.421905	1787824723611108352	0.0005168870658879192	-0.000918939231654523	0.0014902721931927157	0.08147083259474203	9.751246785485268	-0.05349280012934309
0.424281	1787824723611108352	0.0014097803608484722	-0.00021909315250782466	-0.0002664897208460829	0.06306037443448559	9.82334765627474	-0.07101799808471049
0.433140	1787824723620108032	0.00021604612015170468	0.0008802168717508595	0.0006074854765570079	0.08370171282384997	9.865317358093018	0.021505528433047406
0.437383	1787824723626108160	0.0010278525519383456	-0.0018834200841675599	-0.0009852830157825827	0.057166584440347896	9.809752290248186	0.011842575480155146
0.441998	1787824723629108224	0.001698666959764663	-0.0010698762535062993	0.00020579439839056061	0.04819260215801975	9.88863025437307	-0.009592841893503708
0.448247	1787824723635108352	0.0018403634099355267	-0.00010520282531623247	-0.0014999808033162453	0.05778849455728774	9.888812372690719	0.03175988535085944
0.452640	1787824723641108224	-0.003866795907039103	0.00223094008930602	-0.0028294722856739424	0.03980226082378428	9.763627366726094	0.04166338738031493
0.456447	1787824723644108288	-0.00044830495707684373	-0.0012235963318576288	-0.0009710484588689223	0.0044871763278851486	9.850488918938385	-0.006551602840003036
0.465532	1787824723653108224	0.00032279279507233996	-0.0024527050383933075	-0.0025594071901105116	-0.018985651993406634	9.816970071994982	-0.05941612262055118
0.466254	1787824723653108224	0.0003477561163439664	-0.0020070817359810213	-0.0006853530214150985	0.0858181485359446	9.846094681485678	-0.04061276467999233
0.473698	1787824723662108160	0.0010036521825431803	-0.000179468146286419	-0.0012300903646731516	0.11634702287637294	9.904284365744868	0.0027048152915461615
0.479986	1787824723668108288	0.0006121427953106461	0.00307737390961491	0.0010719732891005728	0.06601322760025961	9.88211198887653	-0.014506774538320397
0.482256	1787824723671108352	-0.0014999183988493971	4.579557679361903e-05	-0.002565823192840701	-0.028228926764315536	9.82314497508974	0.0295751599430149
0.487187	1787824723674108160	-0.00019137806123219984	3.08230388425029e-05	-0.0027710877380938866	0.03980904129947081	9.905548407944462	-0.01933209161516508
0.492276	1787824723680108288	0.0002896024194898445	-0.0028797634655958852	-0.002250610013440591	0.017870709077855373	9.819526522941478	-0.01760460638433177
0.499004	1787824723686108160	0.0009166678231338666	0.0012105718688305502	-8.398689282533976e-05	-0.000257653704378559	9.887176500485058	-0.045294707394600744
0.503910	1787824723692108032	0.0016069931188498383	0.0005993258677435755	0.00020678917263531116	0.0931262948484461	9.80695704457069	0.008355983769125282
0.508517	1787824723698108160	0.002802224637746318	0.0014578516425870136	-0.0020528331262797783	0.03131041981291681	9.80441050958375	-0.018619987186103276
0.511978	1787824723701108224	-0.00042968702777478003	0.0018301421849335846	1.6949711794565905e-05	-0.015613578743682403	9.891552974893385	0.045955969399255364
0.517941	1787824723707108352	0.00280100555177012	0.0006510483494513543	0.0005130352563910925	0.03681178542295551	9.869409642030487	-0.053923462284236
0.521811	1787824723710108160	-0.000485009694462876	0.0009225881294112417	-0.003137233960386755	0.11550093935592773	9.808329234151547	0.018072836833459956
0.525899	1787824723713108224	0.0033855912875775393	0.0021919596036009074	-0.0010866640049617363	-0.05071431946426064	9.79732977065652	-0.07443130796011846
0.531582	1787824723719108096	-0.0027561049370239447	-0.0009408345251732885	-0.00031719912057648044	0.057402529004379796	9.765973542767528	-0.03530816053059888
0.537683	1787824723725108224	-0.0006371428149554303	0.0009574101961972683	-0.0027554916262823377	0.04695223649788437	9.869399549739693	0.05880850520257841
0.541191	1787824723728108288	0.002074192936990773	0.0006072987669814672	-0.0017555933659555354	-0.003927807569289059	9.815741934986145	-0.07752450769498895
0.547043	1787824723734108160	0.0012670441293245371	-0.002010773439606559	-0.0011040949701127361	0.01792208469429477	9.858846268781146	0.05215194374048501
0.551026	1787824723740108288	0.0029855233760506393	0.0011555259572786716	-0.00032288346300440277	0.009145042960059812	9.800009436500785	-0.05092016675195088
0.554728	1787824723743108352	0.0013609382190338513	-0.0016254154703745681	-0.0006964886276674553	0.09501301310790476	9.822462554146652	-0.03445302248874232
0.564233	1787824723752108032	-0.0004131274893448325	0.00029327434903548026	0.0011379270345630865	0.09470008051900634	9.859856796775897	0.023193221615513397
0.567268	1787824723755108096	-0.0022054930590859056	-5.702960462659083e-05	0.0011926541296415735	0.04813031746442259	9.868193888234227	0.04547811436613676
0.572734	1787824723761108224	-0.0011419181050444439	-0.002234439594363371	0.0019605334774979366	0.048125689246759834	9.826890225815985	0.019681112963688713
0.578759	1787824723767108096	0.0006923839850205976	-0.0003865997546103326	-0.0017453759482395125	0.0294132080768745	9.78782551473936	-0.09714275384291042
0.585937	1787824723773108224	0.002049976278128544	-0.00033599314195530876	-0.001353610617968133	0.01167497143213226	9.850023989616812	0.04889286124692892
0.587022	1787824723776108288	0.002006885333832011	0.001173468615651671	0.002274337277680729	0.07858381491217198	9.86265257532172	-0.018390577041616795
0.591568	1787824723779108352	-1.3749045629015723e-05	-0.0016526758493782328	0.00039825030585054005	0.029768368900243303	9.838988601105997	-0.050354277654129795
0.598877	1787824723788108032	-0.0020083996970264866	0.004569972753011876	-0.001628442359609964	-0.009507356094676511	9.836978435156682	-0.0744529135902894
0.603062	1787824723791108096	0.001965895012361486	-0.0021030566134135056	0.003802675797460224	-0.04694058943971077	9.794027478417478	-0.040188005913312536
0.608918	1787824723797108224	-0.00034719754237808666	-0.0005068304872121818	-0.002761121291748147	-0.00619743197416802	9.85651424201324	-0.04929484112728849
0.613204	1787824723800108288	-0.001834833546306585	-0.00019158517588447745	-0.0005453125160078304	-0.005376102622148264	9.849402808888831	0.01884236484949906
0.617892	1787824723806108160	-0.002317088960257536	0.0023142640304074946	0.0020687647741157947	0.06233506859522711	9.876300467424352	-0.031083213374150633
0.620814	1787824723809108224	0.002124592715169647	7.17227318801841e-05	0.0012333169777045355	0.039769759387613755	9.854099454310541	-0.041241070731154725
0.626827	1787824723815108352	0.002075790944466942	-0.0007042624464354014	-0.0009910142572814964	0.05177904286777388	9.828406216102564	0.07285057552270027
0.634279	1787824723821108224	0.00025951464608436664	-0.0023214200186780294	-0.0011952203440534987	0.021254925885667998	9.794527553277629	-0.02832827213958382
0.637524	1787824723827108096	0.000572705397405001	-0.0004337573226868535	-0.001208037451663262	0.06307177705238723	9.742718993335613	-0.0012163875407996128
0.641706	1787824723830108160	0.0001855541037984825	-0.0015045071385598509	0.0010028268527201016	-0.002063793392101783	9.793405507288494	-0.034680496417261966
0.645588	1787824723833108224	-0.0002447207961946075	-0.0006391578381949447	0.0002000797849020018	0.08507743446104518	9.869521356148027	-0.010623178707372782
0.653481	1787824723842108160	-0.000597565343374945	-6.588215417892397e-05	-0.0038717143211172214	0.0011104857143452614	9.843047384519199	-0.0575960490145987
0.657939	1787824723845108224	0.00032579784182876784	0.00403221554963355	0.0018243190003769075	0.054127121929974084	9.775924294479397	0.029944533642931717
0.661792	1787824723851108352	0.002323597179322504	-0.0029935000842818203	-0.001707558769230609	0.0024845775066579014	9.749101824150245	-0.03186311072920668
0.666538	1787824723854108160	-0.001428903935502096	-0.0005021080200147468	-0.001904935350298864	0.03228981056915236	9.864115335725632	-0.021307857564572794
0.673287	1787824723860108032	-0.002718310565094622	-0.0008506874140482871	-0.0007136804216230802	-0.03434917011412751	9.892481878880192	-0.07371432218351828
0.676706	1787824723866108160	-0.0009971844572502625	0.0003724943986955912	-0.0019121428281065468	-0.022585650366611087	9.88795621704338	-0.0031016566996040495
0.681434	1787824723869108224	0.0005421775732368751	-0.000405502146862445	0.0028390120241485145	0.07806919379577804	9.807906019481054	-0.026728389958195296
0.687133	1787824723875108352	-0.002396004940715985	0.0011617636277075289	-0.002295838926245873	0.06059872496414234	9.883068823930273	0.016845603098777993
0.692313	1787824723881108224	0.001271704778725448	0.0012925081332791292	-0.0013227539237761444	0.005145794226313397	9.800838062111088	-0.0535334924368477
0.695986	1787824723884108288	-0.0027259802367823644	-0.00043756964650239715	-0.00010547631166757438	-0.011436575911767992	9.824487453131134	0.012344082544867942
0.703588	1787824723893108224	0.0006580704219730994	0.0010778124158375764	-0.0010216200914763259	-0.025320776223256285	9.779516344407092	-0.0791557529973903
0.706103	1787824723893108224	-0.0010581901851400486	-0.0005808715413623082	0.0036618883969341772	0.05399811029220895	9.747581459322644	-0.0027164760520444683
0.709691	1787824723899108096	0.0016489101566885605	-0.003203375606459711	0.0022719260446680063	0.07666407958424194	9.807709560538727	-0.03714947042805104
0.717123	1787824723905108224	0.0009132603549269494	0.0032908517713659815	0.0010875040309443389	0.055886406135107744	9.806435714481083	-0.0012126796852773673
0.723991	1787824723911108352	-0.0007293569901010374	0.001470246274821499	6.065019373244592e-05	0.00870727660964803	9.882480950922927	-0.04388401748092356
0.728128	1787824723917108224	0.002207132724909054	-5.709950216151676e-07	0.00028764199664493807	-0.021277926668466444	9.80986121977655	0.03090112144349283
0.735262	1787824723923108096	0.000424147522065482	-0.002238214739763014	0.0005481102893042195	0.10211552385067595	9.920398856498586	-0.09662567509438337
0.736470	1787824723923108096	9.40186542927004e-05	9.394656985563939e-05	-0.002610965969130319	-0.0029302816017778496	9.755222715070273	-0.05738814127086736
0.743219	1787824723932108288	-0.0008207257768786394	-0.0007577594443345714	-0.0032565231627413854	0.07216430339207897	9.842829402332779	-0.05789770868580497
0.750238	1787824723938108160	-0.00017191146453578724	-0.00037522682826145117	2.868243450598891e-05	0.012475583798555824	9.906374279812244	0.007041019310098068
0.755156	1787824723944108288	0.000702897803600953	-0.00013209651832376437	-0.0003039261892401688	0.07703066169825767	9.846265223919337	-0.060553809308065275
0.757294	1787824723944108288	-5.8658941746354923e-05	0.002042956037347477	0.0006457232181123326	0.030670521987175358	9.849500391751837	-0.02726956523721563
0.760800	1787824723950108416	-0.0009376845843503145	0.0007995354909270019	0.0011533994884551442	0.029813108241482863	9.873330930747592	-0.040435358025382936
0.765298	1787824723953108224	0.00243457916675725	0.0012329489583328302	-0.0009928170007012151	0.08665620261352161	9.842929571597859	-0.014683188482926986
0.771211	1787824723959108096	-0.000176743106673509	-0.0003272068730995018	0.0008601920138312267	-0.03273621156304456	9.856578936320957	-0.002708594035657881
0.776605	1787824723965108224	0.001497868496815243	-0.0016922534394126151	0.0001210685271233518	-0.020553558697770986	9.837881679818134	-0.06100316494289392
0.783832	1787824723971108096	-0.001896274005190405	0.0008501048203928571	-0.0005694676453132124	0.02780003597524528	9.83430759317984	-0.009064423704535094
0.786686	1787824723974108160	0.002512221551291072	0.0008128403620583266	0.0006768740356342013	0.0763578819513255	9.906073129715915	-0.03399578643135862
0.789441	1787824723977108224	-0.0010039910613972231	-0.00289331202559696	-0.0006034364823874082	0.09316380911770696	9.808560839950365	-0.010766193801628528
0.796622	1787824723986108416	0.00035954605968792916	-0.0019020029068972648	-0.0022272535948860725	0.06354926920906823	9.819190293984578	-0.027587656727098727
0.802291	1787824723989108224	0.0018645781705557204	-0.0018281136589282103	5.9707794114385364e-05	0.07977139670115704	9.88666255417389	-0.023487157633438126
0.807404	1787824723995108096	-0.0016319663565433193	0.001261881777319119	0.0004314804250177848	0.038556873870438546	9.802724214433	0.016596468470445616
0.810256	1787824723998108160	-0.0007172323173069052	-0.00029950592956931447	-0.000508302548438558	0.013974025478253032	9.820921014013349	-0.07078789389159787
0.815722	1787824724004108288	0.0037166045754830606	0.002094316070110069	0.0014439054596087266	0.08532155806211283	9.825824032249338	-0.033324567046305695
0.822356	1787824724010108160	0.0027706961772489846	0.0010747524952614495	-0.0006737015660851276	0.02986830972171766	9.915163731417257	0.05812233426160551
0.826540	1787824724016108288	0.0007598306151914133	0.0014043317623990954	-0.00040177765060808095	0.06993231609768251	9.823071084626356	-0.039376300377437654
0.832348	1787824724019108352	-0.0005607264416973243	-0.00013185129123532288	0.0002014268503124245	0.0008338027461265406	9.790437002558159	-0.08685497042619525
0.839661	1787824724028108032	0.0036619047028944684	0.00044451268263152714	8.620681937017229e-05	-0.004238389025536658	9.84890033291029	-0.07247027865131082
0.842795	1787824724031108096	-0.00034258967625237265	0.0004673465601786272	-0.000488588616022979	-0.00886307368035006	9.843302538744092	-0.06884854545406938
0.846200	1787824724034108160	0.0014099486699245833	0.0002908148034256044	-0.0007722637853892212	0.02387934300841671	9.726615419222396	-0.04360151111845822
0.853426	1787824724040108288	0.0017872910567459667	0.002404073641222502	-0.0006583021316552435	-0.07889599424513917	9.827306397083602	-0.010244143284329906
0.855408	1787824724043108352	0.0009431444006019753	2.765807156922521e-05	0.0004086564558077474	-0.01056027334476528	9.94172303693777	0.009519792575329138
0.863443	1787824724052108288	-0.0006628079013810638	0.0002306270539419749	0.001168467531830643	0.08883080381702181	9.782090283725065	-0.10367648062766503
0.865015	1787824724052108288	7.055616644340685e-06	-0.001956115135540038	-0.0003076517582032833	0.016546117098578464	9.850497236490414	-0.0015341618190040616
0.871805	1787824724061108224	-0.001746465828508031	0.0016627089556065834	0.0002677426919902345	-0.008605167142175865	9.816803115308543	-0.07616396177545254
0.877303	1787824724064108032	0.001557904656108305	-0.002258145824474594	0.0009403160337375494	0.024188529536877258	9.874078723713735	-0.08787713011901875
0.882039	1787824724070108160	-0.0007590159502919363	-0.0004279359658873206	0.0021215816812029534	-0.014876298810828241	9.850883843381311	-0.06490713571491694
0.887788	1787824724076108288	-0.0009617564268436297	0.0009602617682669109	0.001298924106457418	0.028171235106976684	9.826198960584327	-0.0699583509612074
0.889207	1787824724076108288	0.0012929615718165366	0.0016014898237158167	-0.0013288963743973	0.052767355833095095	9.852393422256506	-0.02106611575537544
0.897723	1787824724085108224	-0.0005962483779417227	0.0010904701567109162	0.0002783068636233935	0.06564904561304592	9.808305973641684	-0.04243456488812901
0.902092	1787824724091108352	-0.0010309654349884418	0.0005127800156700609	0.0015056834017867535	0.1354688803333447	9.833544210301845	-0.02441434824620306
0.907552	1787824724097108224	-0.0006748563052915098	-0.0021820260804276547	-0.0017658621914151598	0.04383564167201329	9.809933175930581	0.018926898225441594
0.914696	1787824724103108096	-0.00230095895875477	0.0011507094086099425	-0.0001809315881855515	0.048774070352538806	9.750074215588196	-0.040217590193800404
0.918179	1787824724106108160	-0.0026750144107905143	-0.001052625380265135	0.0017211623367156678	0.0057099372420294815	9.797394805089231	0.01538359660647174
0.922504	1787824724112108288	0.0019675803165867824	-0.00029461071977762276	-0.0004378102814158409	-0.006541634309960798	9.811725249133046	-0.05678524877300252
0.926655	1787824724115108352	-0.0003548632645804497	0.0020247481136656787	0.00016625532441541809	0.07379375648053851	9.867033189174341	-0.03964880136583578
0.930902	1787824724118108160	0.0007957669892751291	-0.00247665146096756	0.00017696766312475144	0.003296778509687969	9.77635247559713	-0.059561062136013546
0.937637	1787824724127108096	-8.281849880223078e-05	0.0011755059393031451	0.0026689520009738916	0.05729404897628318	9.868952612819816	-0.1038611300149475
0.943073	1787824724130108160	-0.0020342929770627203	0.0016050047618754984	-0.0010356494632322176	-0.010106983750923879	9.790634031537685	-0.0037684705194127206
0.946620	1787824724136108288	0.0018405155509494617	-0.0017726462209132522	0.0008357556395628745	0.057987658122612896	9.837791841748858	-0.0218054621173997
0.951206	1787824724139108096	-0.0019578654086325545	0.001834584706047834	3.732475909980988e-05	0.013108970721398643	9.907932029612677	-0.05087732401868186
0.958418	1787824724145108224	-0.0017248474145204942	0.0007273128315878061	0.0014697843269235837	0.000988774803731468	9.887493130539836	-0.03589444672780986
0.962556	1787824724151108352	0.0027548015415786733	0.0029423687709006063	-0.00021310716376117728	-0.035270205058389625	9.827152237175255	-0.02733006991177815
0.969308	1787824724157108224	0.002946272285091313	0.0016612068021913944	-0.0034323907882914113	0.09138004427362076	9.761800661842933	-0.05371760750177456
0.972432	1787824724160108032	0.00162068730000602	-0.00041482754586205325	0.001904947254416604	-0.0052000914024554895	9.811296891526744	-0.010606444665891345
0.978304	1787824724166108160	0.0003049714467115618	0.0026437369940348478	8.768319426173592e-05	0.02504207388782087	9.794068292402978	0.016068856694176258
0.981161	1787824724169108224	0.0002789051470347349	0.0005529699553138595	0.0024845919385788756	0.04325490046054854	9.83533937651032	0.020477817269153674
0.987927	1787824724175108096	-7.398194210370505e-05	0.0009189458909302976	-0.0008208053217648734	-0.01778731838846137	9.800556626089127	-0.04818272381984094
0.991954	1787824724181108224	-0.0002161431575455607	-0.0015408957905100442	0.0001996055171704075	0.09666341927919198	9.847108271417627	-0.01675964607466201
1.000941	1787824724190108416	-0.000762404080688944	-0.0023624955266410065	0.0008911193254098621	0.05540558290647807	9.85519759115592	-0.02767945449572484
1.002990	1787824724190108416	-0.0006805871790433669	0.002267607003342678	0.0035281617392428867	0.052062278749943874	9.787118674075158	-0.024886674406410687
1.007911	1787824724196108032	-0.00017678155128837637	0.00031510900614641014	-0.002128878046053132	-0.029970587014492518	9.840234761039957	-0.05401710576030168
1.012512	1787824724202108160	0.000440942326181568	0.0011561414340665657	0.001425787838511744	0.01804073101580573	9.841211553551725	-0.06654715903521644
1.016741	1787824724205108224	-0.0009858109990166174	-0.0018190813947736636	0.0015732809548547684	0.014874755512158524	9.784295061779094	-0.013611136378295146
1.022924	1787824724211108096	-0.0009642408189891457	-0.00010794747775839955	-0.0004919155923072777	0.022299514344081835	9.795108872442285	0.0120288118821208
1.028998	1787824724217108224	-0.003581472177599375	4.904866502094159e-05	0.0008158475398200029	-0.011687261299612436	9.750171667041398	-0.10482549645092532
1.032479	1787824724220108288	-0.001120562906273214	-0.0022749243069670015	5.54627114024712e-05	0.04779797131861676	9.753546944687564	0.0032164943643609653
1.037400	1787824724226108416	0.00023996061729577493	0.0004935124754188871	0.001506751120272353	-0.024490500977991325	9.832486296498178	-0.013977325202719385
1.041133	1787824724229107968	-0.001046236462839756	0.002905560589127513	0.0006607790375881729	0.039168483815758125	9.863875493427148	0.04350372538391338
1.046735	1787824724235108096	0.0008106370440318915	0.0013349811883549393	-0.0030763881997420256	0.12752213068872603	9.760968684974516	0.04534106190654569
1.052890	1787824724241108224	-0.0037813622922496953	-0.0007630284737933602	-0.0008129588119839942	-0.010447070897146159	9.773811978927254	-0.01763977161323399
1.053390	1787824724241108224	0.0010762039081125884	0.0001745652276470376	-0.0001545905882547392	0.008154409327532284	9.780894888851542	-0.06361568315682273
1.061367	1787824724250108160	-0.0009149196057038599	-0.0011350736273964272	-0.0012806563038783075	0.002006588514547155	9.81228458590384	0.00507699486440626
1.067014	1787824724256108288	0.0016842067475631303	-0.000702659540829674	-0.0018789103370241847	0.03796199257425712	9.807665322305652	-0.03556746337340955
1.073049	1787824724262108160	0.002175735369032068	0.000941778493017706	0.0010084490268055762	0.07362779105220447	9.842646547487671	-0.02339719321796531
1.077632	1787824724265108224	0.00020652720340506728	3.509710136557287e-05	-0.005300183415400696	0.06847169289784527	9.837582624243092	-0.01194541014869635
1.080740	1787824724268108032	0.00024772760119600145	-0.0009747040456247391	0.0010166542959754302	-0.014566335196845137	9.815635315290093	0.01496306587259897
1.087195	1787824724274108160	-0.002272307533695486	-0.0017827029941381459	-0.0030398554568426776	0.06213379137008448	9.839220236172002	-0.003077760782798207
1.091224	1787824724280108288	-0.0008090555213258298	0.0018614224612788235	-0.0006395284962813578	0.06721283823251296	9.791606925271218	-0.07638629520707768
1.094888	1787824724283108352	-0.000262471395287335	0.002684195157301403	0.0006691815953605552	-0.03340551163095347	9.796819886648473	-0.04125367135268372
1.100963	1787824724289108224	-0.0008488021511172246	0.004062380537597138	-0.0012167688977735014	-0.03415485157057403	9.782775667733274	-0.05998783430714673
1.106602	1787824724295108352	-0.0015162678322781073	-0.0015370856274369083	0.00015596205646508735	0.05556859178554584	9.807643392373679	-0.11622306189747404
1.111306	1787824724298108160	-0.0017806335274108652	-0.003113687160541263	0.002195974398387022	0.08642799142855512	9.825681509861187	-0.020056956294187717
1.114643	1787824724304108032	0.0002425896139348018	-0.0007477294206907097	0.002205808271548913	-0.030339014668621336	9.849160282614404	-0.03405515137267469
1.127556	1787824724316108288	-0.00026565862333855677	0.00010619931917987124	0.0011249585520610656	0.05752794895161377	9.832796243891499	-0.03098858838641379
1.128056	1787824724316108288	-0.002095913888549494	0.0014768484454820057	0.0011920690472738214	0.04586779976904963	9.847688521289893	0.026218893606174985
1.133346	1787824724322108160	0.001334890474606055	-0.001967070678876407	-0.0011419208432501692	0.0017419420596446501	9.790256165877604	-0.07618978165442399
1.139989	1787824724328108288	-0.0005627516263321176	0.0010276936260460111	-0.0023163065164597766	0.06509901216853586	9.919241853719793	0.004685321025903567
1.140489	1787824724328108288	0.0005931822234340856	-0.000829048170243875	0.0001886277274242893	0.004618802657818069	9.845892525106427	0.014490252479148279
1.150385	1787824724337108224	-0.00025858026887892965	0.0016407388549681014	0.0015642519685781205	0.03960264703097577	9.83123666681914	-0.03902731449759111
1.150885	1787824724340108032	-0.0019027133028797804	0.0008513993406385941	-0.0022816261107662422	0.0658917603336435	9.828014258763265	-0.05415259703756692
1.156213	1787824724343108096	0.002100540397147017	0.0018378509240026158	0.0009590640799183927	0.02653110426508039	9.82562680630924	-0.024203631190638827
1.163347	1787824724352108288	0.000998445858282654	-0.0013563084787004067	0.002432723565994484	0.05635010559734247	9.81691798855356	-0.09869150347486368
1.165504	1787824724355108352	0.0019024929232410491	-0.0017087158253276942	0.0011892334628356073	0.11342363047963412	9.850563515896809	-0.06878583546443086
1.174333	1787824724361108224	2.7677522146107722e-05	0.0020304154295892815	0.001426275173360111	0.08602122423754402	9.835022010095082	-0.023072446443925008
1.177411	1787824724364108288	-0.0012233026503610084	4.540423377736307e-05	-2.039276571838659e-05	8.989578183101268e-05	9.868892283140147	-0.01963805957178573
1.180302	1787824724367108096	-0.0008113600986753479	-0.0006647083991032121	-0.00017946672333896	0.028655396244361173	9.757543303993504	-0.09964332489618585
1.185340	1787824724373108224	0.0012612672546602902	-0.00013383592899853796	0.00027484680701914165	0.05099364438494916	9.838629120215076	-0.057895894725613205
1.190525	1787824724379108096	0.0007555487638199974	-0.00011221711657385868	0.0010211857399693397	0.029756191900874404	9.876618533021668	0.02761374560089603
1.198536	1787824724388108288	-0.0009022545792743971	-0.00032601462752996355	-0.00012017865627780002	0.05243066802582578	9.817045943107363	0.06448718056011424
1.201560	1787824724391108352	-0.0013137499114272003	0.0009996442486299925	-0.00029420156078924914	0.0676043550473101	9.817517057403071	-0.01325370567563892
1.206340	1787824724394108416	0.001599879541747153	-0.001140030044102074	0.00025669052998662843	0.08809988446451	9.845031869805956	0.06819903279396759
1.212289	1787824724400108032	0.0016624651089830942	0.0003594785421172352	0.0008601567775960306	0.0028601184929300423	9.76894134153972	-0.019555074499376487
1.218265	1787824724406108160	-0.0006246287015889616	0.0024918923763295425	0.0013386718702411333	-0.004327304111166483	9.829510580709563	-0.09723795526470715
1.223403	1787824724412108288	0.0010764091984783403	7.283248616387302e-06	-5.611071557250368e-05	-0.0029839097596560324	9.788123505435177	-0.05608599183208787
1.226500	1787824724415108096	0.001185170868603416	-8.39983361706049e-05	-0.00044774327124725297	-0.06831875422891324	9.788771737608444	0.0014183973484389253
1.235615	1787824724424108288	-0.0016451363258319254	-0.0009156507799086171	-0.001984922344784939	0.018389457755406145	9.770782011128462	-0.09783761023762687
1.238965	1787824724427108352	-0.00020299894093437813	-0.0014985481160663956	-0.001625683920933972	0.10277937202812677	9.878464803129138	-0.016583538109652265
1.244834	1787824724433107968	0.00025312490124159483	-0.0014885762495540338	-4.014460057437765e-05	0.04600810479406106	9.9448104229156	-0.03779999093972872
1.245334	1787824724433107968	0.0007187835877353889	0.00191228120379479	-0.00021070758311311235	0.047324922931297086	9.742483923940148	-0.021666298208137178
1.251927	1787824724439108096	-9.553303343365475e-05	0.001538094972302964	-0.0020893605885560756	0.020271500876992466	9.791702978490678	-0.044172600632580064
1.256839	1787824724445108224	0.0014843597446029528	-0.001734290606655819	0.0024387984666894807	0.08422094254070148	9.812647575566045	-0.03237998777860358
1.265137	1787824724454108160	-0.001488125676995259	0.002644886836419284	0.0002916735708853658	-0.006957535582304879	9.785925286847204	-0.05132244949746542
1.265637	1787824724454108160	-0.00029792444171914816	-0.0005604114864771636	-0.0008803154809837485	0.00026376305429603314	9.847905943074462	-0.05247082493655149
1.272091	1787824724460108288	-0.0011812322840702798	0.0004151885179607158	-0.0005156575803716334	0.07866796406849845	9.85054579450466	0.02002293721270724
1.276743	1787824724466108416	-0.0010301524683821997	-0.0009697138883854059	-0.0005602735176143565	0.06727345417354141	9.827676927709609	-0.005500850854136197
1.280893	1787824724469108224	-0.0006474058511685035	-0.0008574723695167375	-0.0005366841656071434	0.04664639810972829	9.87785039798982	0.060220916307657774
1.288134	1787824724475108096	-0.00023263296082721573	0.0002820544664121872	0.001931149844657098	0.0028405573472013237	9.807677597536378	-0.0016262192593854315
1.293689	1787824724481108224	-0.000739793194619195	0.0004437293534604748	0.0017714849967317959	-0.0990616219729335	9.804739739690357	-0.006770250313968211
1.298349	1787824724487108352	0.0003142002761139376	-0.0004976367385916905	-0.0012499790061668709	0.06518776968865442	9.825460117377434	0.07049762000371868
1.300861	1787824724490108160	-0.0012878492056727243	-0.0019038261112313299	0.0019067709568467925	0.02853353443334625	9.909074763234713	-0.04111726536158236
1.309506	1787824724499108352	0.0017824416790259432	-0.00018973834759040956	-0.0012841702817615683	0.025288026335043574	9.849555276688703	0.006492422065898989
1.315056	1787824724502108160	0.0007790879692219741	0.003890672402714467	-0.0011736983806567892	-0.030781782340443112	9.856695863796261	-0.11378374954384075
1.317874	1787824724505108224	0.0002975463668836917	-0.001365327213104229	-0.0004447203178897114	0.051340274781869706	9.862404799812126	0.025555918374214316
1.322092	1787824724511108096	-0.002402519217865429	0.001277581923028471	0.00021741272793077861	0.11641324014853478	9.849656160184315	-0.007697630296823566
1.325464	1787824724514108160	0.0012998852796600444	0.0009784191812222277	0.0008539004324727695	-0.046594383734473235	9.85435281115176	0.02840719126450656
1.333324	1787824724520108288	-0.0009495361543129248	-9.300504394855821e-05	-0.0017441056063394128	0.010213990946627546	9.788157589500948	-0.02153774263478945
1.337217	1787824724526108160	-0.002094784671905284	-0.0013795669494831501	-0.0005318394057914913	0.1521518375547486	9.822038483369862	0.049448320865678255
1.344621	1787824724532108288	-0.001591918221301684	-0.0001819835310043451	-0.0008339378482761441	0.016666245465744817	9.83717421012324	-0.017314484814935208
1.345541	1787824724535108096	0.002858545575672997	-0.0011538383522410698	-0.0005541857051746063	0.03454206594245799	9.88336523293393	-0.07110608753697172
1.353245	1787824724541108224	-0.0020020908088022463	-0.0005296175092476968	0.0015156573511773178	0.1023655814945624	9.803861977838205	-0.001531825052530883
1.356953	1787824724544108032	0.00046001174718240956	-0.0004643648699318221	-0.0017934675973713204	0.00394534253363683	9.817542538268945	-0.05927728572226229
1.361471	1787824724550108160	0.0016991675965849678	0.0027975622112399903	-0.0007044377145669938	-0.05511488207475575	9.77630379819154	-0.017661365587283692
1.366742	1787824724556108288	-0.0013265255091905583	-0.0001261262131315366	-0.0018224211708731855	0.007486630415509926	9.823905943375527	-0.030313872683303024
1.370248	1787824724559108352	-0.002137946542492234	0.0007851168412978756	0.0006027393423973163	0.07956914989052363	9.856981363026446	0.02494472308547585
1.378331	1787824724565108224	-0.0003292036252591721	0.0013423728188756247	0.0007055850063756054	0.05820690973562434	9.840918693529757	0.008102619280848843
1.383152	1787824724571108096	-0.0017837197289752398	-0.0009368713567357843	-0.0014759073490046841	0.055074302322146995	9.838076748776162	0.015870040023057863
1.387047	1787824724574108160	-0.0013649438724086587	0.0008765066745542481	-0.0008619933456654167	-0.04210014956686084	9.838249315133828	0.019630956688869154
1.391930	1787824724580108288	0.0006410923379295332	-0.001484365324128263	-0.00010493670589046221	0.045070474522142225	9.798458794377186	-0.0058237930218853
1.397805	1787824724586108160	-0.0009636371359932269	-0.0003826536697815148	0.002951667204632043	0.03354963504163332	9.85054462637532	-0.017739409319815047
1.405824	1787824724595108352	0.00010644654822969754	-0.0008790638769460072	-0.001767907045552846	0.014600277265325782	9.828023333864408	-0.07058013049280033
1.407751	1787824724595108352	-0.0005939035440547717	0.0012547937522512165	-0.0001681250992092434	0.025000439984276472	9.785668117912339	-0.042273211536042715
1.411450	1787824724598108416	-1.360043385380304e-05	-0.0018100163771103653	0.0011060932140778865	0.021319331867912825	9.803485782912025	0.0641771416535509
1.418720	1787824724607108096	0.0018688385251486347	-0.0004613328007889644	-0.0010064266855725956	0.0195361292604306	9.814078576224711	-0.06289537848861455
1.420499	1787824724607108096	-0.0011327516116279809	0.0002967267180783405	0.0005791842329798204	0.01267886701314357	9.782587020802982	0.04539157218076188
1.428103	1787824724616108288	-0.0014074211138114991	-0.004040189035240606	-0.00325080202178385	0.05260119767768078	9.917071536412577	0.027914114934698954
1.432719	1787824724622108160	-0.000696954568070447	-0.0005992116219659773	0.0023045544588228277	0.11912122810385888	9.83152934252973	-0.102348274713582
1.439649	1787824724628108288	0.0008178271314879955	0.0036694310648522875	0.0002803586742487795	-0.018479685622181823	9.841869945659546	-0.01034587720646183
1.441326	1787824724628108288	0.00330109107009238	-0.0014285375588145917	-0.0009697314462046692	0.020264415098932155	9.826734794353083	0.012175916016933332
1.448913	1787824724637107968	-0.001202708664042788	0.0005202912558938965	0.00560156239729135	0.03952810582121201	9.88215201797859	-0.07724739372750132
1.450807	1787824724640108032	0.0008107431288111292	-0.001660219272335098	-0.00022346370040124945	-0.04875608751940039	9.827498118614814	-0.0007084945610069081
1.455985	1787824724643108096	-0.0006502856971618306	-0.001035563817059413	-0.0025722820773322447	0.04986172335922208	9.757759985575936	0.03383634991028052
1.464768	1787824724652108288	0.0012443741098070557	0.0017287175047403984	0.0016701821448556144	0.021928430119349675	9.847697487952178	-0.07471377380005642
1.465425	1787824724652108288	-0.000600525852812023	0.0017015950356431579	-0.001136118152845606	-0.02220976810945103	9.746996240937086	0.012401381014805875
1.471944	1787824724661108224	0.0006516010375555709	-0.0004643042371771796	0.00029633523699976834	0.0029488469932209445	9.850730671621715	-0.052718953185592166
1.475829	1787824724664108288	-0.001770121714503756	-0.0008594583819045416	-0.0014738174271926184	0.047173040444260614	9.864395895935129	-0.05193637863228426
1.482470	1787824724670108416	0.0003834226351692279	-0.0008345503215784602	-0.002050797960149393	0.05140483982749793	9.748504989725413	-0.09348806430223483
1.486709	1787824724676108032	0.002174391511279861	-0.0005902963412233826	0.0018256030734674722	0.054005239194197696	9.79269515641827	-0.014555043714502754
1.491805	1787824724679108096	-0.0007981335039861533	0.00323413908890673	0.0013799550941100912	0.05654722439392355	9.84522264843402	-0.03554519350990171
1.497015	1787824724685108224	0.0008655433319744045	-0.0006358586887695612	0.0005078804073735802	0.03002892516859877	9.869024987753358	-0.003567078198929277
1.500957	1787824724688108288	0.002347167882133241	0.00020295792975530487	0.0017221562405828812	0.0397665108754967	9.812071004988235	-0.0672270753335905
1.506523	1787824724694108160	0.0008954260858497839	-0.0006936498186698425	-0.0036678838387481675	0.05110622086518491	9.840462767278545	0.006159426566371955
1.513366	1787824724700108288	-0.00043419618928096463	0.0004194137396907368	-0.003799291251878486	0.06478627341234898	9.865263134320507	-0.009265961476349541
1.518719	1787824724706108160	0.0017813543291841868	-0.0003170207540299187	0.00039477175404422466	0.022677220292557376	9.84563549822384	-0.009926915576339299
1.522371	1787824724709108224	-3.380852377646331e-05	-0.001130980891812009	-0.00010832122518675369	0.034668160658594765	9.82792400941231	-0.05333328759470689
1.526821	1787824724715108096	0.0021836185798168152	-0.0005020945981135573	-0.000786090954901882	0.008335084836460626	9.748829928680891	-0.05697951887890548
1.534041	1787824724721108224	7.358428040264412e-05	0.002463889809107144	0.001751439110558586	-0.05558764078447789	9.817067097865433	-0.056614588978130376
1.536009	1787824724724108288	-0.002419760116386134	0.0008100678789086164	-0.002336717450575282	-0.009393197917337809	9.890230179442653	0.03183846573832902
1.543598	1787824724733108224	-0.0004079447031977174	0.00036875919124092	-0.0009603672932781884	0.03734443243822458	9.77159765608564	-0.02254238453903959
1.547834	1787824724736108288	-0.001931329701921115	0.002002896574237693	-0.0009770698082992898	0.05607514621476668	9.851786202734731	-0.06768184555845468
1.551061	1787824724739108352	0.0012886844095676758	0.00010505834473727025	9.571984684732222e-05	0.06826095687583708	9.909705822197486	-0.03330161039722711
1.557516	1787824724745108224	-0.0023642474891862513	-0.000870220840085186	-0.0031411576139166557	0.05953846628273128	9.800926503286128	-0.09193224134552294
1.562072	1787824724751108096	-0.0028330602385932143	0.0032147140831139402	0.0014856410800093286	0.03307294600397377	9.828489047116966	-0.004626171320344544
1.568058	1787824724757108224	0.0008668197544893863	-0.0004883300193078254	-0.0002152186953536315	0.03516025548135541	9.806174628619702	0.005208335069608504
1.572797	1787824724760108288	-0.0033166826814500267	-0.0021418040386002417	-0.002063107525010271	0.03316609567930488	9.78160983433204	-0.03674190912916694
1.578735	1787824724766108160	-0.0013790620536367874	0.0009091621808680616	0.0003009842160977438	0.022282926383558138	9.8145638555461	0.0072252853728060965
1.585105	1787824724772108288	0.00038747800326609683	0.0006380296923391716	0.00018945808272088793	-0.03261988826225628	9.808541699667757	0.06238140972574907
1.589958	1787824724778108160	0.0013835085656910377	0.00257720783025269	0.00057417582089002	0.004801999975557077	9.866492088371338	-0.08591296029090723
1.593678	1787824724781108224	-0.002755222845823965	-0.0002809495452579915	-0.00011156876306012585	0.032448277548857395	9.888471114889747	-0.00816666306232117
1.598870	1787824724787108096	-9.546033559297336e-05	0.001229080671006549	-0.001469847582097051	0.00334304606932467	9.823849597038217	0.025603622667165468
1.600905	1787824724790108160	-0.0005509777564735942	-2.7278613693740606e-05	0.00033953517131934247	-0.013165423392825802	9.860200635069067	-0.12691939712420058
1.607670	1787824724796108288	-0.0008646790512879631	-0.0013844078056101383	-0.0016475054516794784	-0.00464127970946019	9.788254196565187	-0.014597809478796771
1.611459	1787824724799108352	0.0015735712999056743	0.0020164430572396984	0.000494349611182182	-0.014453538693316656	9.887926800091023	0.003792332224144584
1.616548	1787824724805108224	0.0024662920563906505	0.00038066878145215464	-0.002225297371127835	0.06718170342157356	9.908904527936599	-0.025942769342680447
1.623312	1787824724811108096	-0.00201289405959459	0.0019235474458117832	-0.001288769549152566	0.012788928412810301	9.84370013739245	-0.03983339222220017
1.628941	1787824724817108224	-0.00023508361602543262	-0.00013140401453413174	0.00027324555032506794	0.09883812333929931	9.894566583094322	-0.0035072391566331254
1.631145	1787824724820108288	0.0035191495854468733	-1.3124549380684491e-08	-0.00029781538450747826	-0.025318155232220134	9.813773670571281	-0.031466080506081316
1.636911	1787824724826108160	-0.0013375475478423632	0.0014888561860962825	0.00045598201435092427	0.04156904870788812	9.846926061737545	-0.030861973803745595
1.642821	1787824724832108288	0.002198729350160578	0.0013911240974267473	-0.00025203506821661655	0.04482614685947307	9.766564209991829	0.0027572957432634854
1.644666	1787824724832108288	0.0016759116681458674	0.0003121384811070187	0.0034643201592890814	0.0859987425851938	9.855282583350599	-0.03198899729914257
1.652685	1787824724841108224	0.0017068561743696113	0.0002467921059372143	-0.0006598649936769879	0.042320244847336	9.814549606843553	0.02092177359855788
1.654087	1787824724841108224	-0.004005456152781183	0.0019200856483923892	-0.00033012764501857256	0.025432098142870896	9.907735072150984	0.026035441122631377
1.662711	1787824724850108160	-0.0008008030586995884	-0.002363314976660957	0.0006983294772587733	0.04881339288803148	9.840517046334018	0.028518554049765513
1.666640	1787824724856108288	-0.0029049674256713073	-0.0019291478937201875	0.0008528095572674412	0.0680264790609158	9.857480464460698	-0.0042551115851621885
1.672576	1787824724862108160	-0.001441308628801398	-0.00024137544827437115	-0.0014512508338988472	-0.009185897007920885	9.847354067335393	-0.09406440909403736
1.677951	1787824724865108224	-3.2448944597787466e-05	-0.0005909750170668489	-0.0012356425277637978	0.015959691820484456	9.82430754302651	0.05868782372978691
1.681757	1787824724871108352	0.00021158643602847482	-0.00020023716904083195	-0.0004786525112984595	-0.01787892585605936	9.84573323047444	0.06269121029709765
1.689664	1787824724877108224	-0.0023602514997258257	0.0042787334806121124	-0.0009080464026757109	0.05610064221573679	9.794310385620529	-0.040372319214911204
1.692920	1787824724880108032	-0.001222397569664548	-0.0019514282091096073	0.00029105948336664584	0.0031480595729114214	9.807975989620688	-0.09060903345316075
1.694609	1787824724883108096	-0.000889501147351252	0.002033185543548844	-0.0023690093163733004	0.08059507087530757	9.824369318363727	-0.01627173192394641
1.701159	1787824724889108224	-0.0019883526661771474	0.0015026198497212835	0.0014943454948499425	0.043161773097815326	9.858613825810206	-0.028796076792458724
1.704897	1787824724892108288	0.001194886299086231	0.0015439649367009075	0.00016312419068054067	0.02334032046266557	9.825610909424771	-0.016448212766948835
1.712679	1787824724901108224	0.000936007896452383	-0.0001521450718812671	0.0003508135030130757	-0.02661670236095115	9.885179787958974	0.014401926753019295
1.716538	1787824724904108288	-0.0009821033416667043	-0.0018752662839219714	0.001204639779938955	0.02178484920639305	9.804626186609806	0.029206497244580958
1.723401	1787824724910108160	-0.0032853242568150645	-0.002734197171835659	0.0019017786943103245	0.06226992831769128	9.857274538090413	-0.049769151612109916
1.728799	1787824724916108032	8.819947706415764e-05	-0.002416563966034356	-0.002059872649149031	-0.035074691290828464	9.78882584018391	-0.05328772078251248
1.735975	1787824724925108224	0.0011762143958304041	-0.0011580598742741968	-0.0009431866646026687	0.01954637196516423	9.721040536418563	0.0035563798922493006
1.739169	1787824724928108288	0.0021584314622683453	0.003570608725887834	-0.0012757456661122392	0.08604629363438912	9.867728769579294	0.017363954314404205
1.743088	1787824724931108352	0.0009421551750345335	-2.8938484314770403e-05	-0.00016207467645196726	-0.007452044747707644	9.864708257703493	-0.02377783616238152
1.748647	1787824724937108224	0.0006368289338340515	0.002134603378629014	0.0019770804922715	0.012651649437175796	9.804400698672396	0.046328055019184064
1.753760	1787824724943108352	0.001201632108923398	-0.00023845332420351542	0.002893671511064837	0.05893951169501374	9.820280616191292	0.021501621653305047
1.757944	1787824724946108160	-0.0009192285568871808	-0.0017919557250141637	-0.001334728769466209	0.0695220365628188	9.833435311514306	-0.0014813708555675778
1.761683	1787824724949108224	0.00018186102964262474	0.0011639442315462302	-0.000793170721274035	-0.03075966825507019	9.856014237655945	-0.04525361742661903
1.769144	1787824724958108160	0.0011109838960928757	-9.694112398012997e-05	-0.0033355769176766164	-0.033247693898622685	9.77714303137358	-0.05200127089143762
1.773357	1787824724961108224	-0.0020185049400413715	0.0017907777237961152	-0.0027576622260252646	0.060767314041610274	9.77036291683769	0.040883764308744366
1.776072	1787824724964108288	-0.0023162472048468313	-3.5897379302403206e-05	1.9424174261709794e-05	0.04184342792708186	9.842696586422758	0.0018808338661800879
1.784104	1787824724973108224	0.0009154266221051624	0.00016063761144709704	-0.0006170338165710041	0.07174028946879835	9.76411732112696	-0.04392221920744254
1.788983	1787824724976108288	-0.002801304946374108	-0.0010590175571291863	-0.0006729378730606868	-0.01023901662331024	9.821352714507375	0.010392583141940921
1.793558	1787824724982108160	0.001614270538832741	-0.00021925008390626265	0.0014330126633668211	0.0348092974459766	9.785983730969233	0.0036842073959113854
1.796620	1787824724985108224	0.000627573392009545	0.0020731779220192277	-0.001269867371613008	0.04434561221078037	9.786275562176552	-0.028200056415077446
1.802424	1787824724991108096	6.460377077378325e-05	0.004399060405170865	0.0007319464906913234	-0.004364937031580515	9.81895521451006	0.011097053913390609
1.806105	1787824724994108160	-0.002162972597657167	-0.0009488931800193507	0.0001615368207064319	0.055730321635603736	9.80897648705462	-0.04298401602119939
1.812409	1787824725000108288	-0.00022325390053215294	0.00018011241886137406	-0.0013790629808033633	0.06801275400557141	9.881036773501592	-0.052852814360290046
1.818578	1787824725006108160	-0.003634483424354755	0.0017992044540707716	-0.0008915743018672127	0.02738438813887961	9.837429590516765	0.042176371690532
1.822499	1787824725009108224	0.001031171527672946	-0.001613195175014878	-0.0015754324675239953	-0.005719253120607386	9.811731806821307	-0.0930227647015376
1.827338	1787824725015108096	-0.0004825831398004072	-0.0003432869299858192	-0.001764864889138272	0.11574150123718445	9.74910740757635	-0.019027855403873296
1.830678	1787824725018108160	0.000915028616382222	-0.001532468264040571	0.0016607968645165672	0.06245238569566782	9.820585957984546	-0.09870695630737042
1.835462	1787824725024108288	0.0018028087694017412	-0.0006876151923822787	0.001629939714360013	-0.03333850632523351	9.80883679504607	0.043873107386696725
1.843741	1787824725033108224	-0.0015900628375948311	0.0013459981840991955	0.0017251985685249657	0.10141665274786929	9.838946083444117	0.012346026169207124
1.846775	1787824725036108288	0.0018265776926060374	0.0005859037626618491	0.00039649441744414756	-0.005800014117776614	9.817460810093342	0.001563128125726329
1.851970	1787824725039108352	0.00014451863204571915	0.0007846270962318985	0.0021364665301585027	0.006599914151031019	9.90822346899339	0.034905818874916145
1.858423	1787824725045108224	-0.0016418013262942894	-0.001526826922890419	0.0028392324333898697	0.10247246717082759	9.826664177846355	-0.03193784046166735
1.860700	1787824725048108032	0.00011554917868066332	0.00022643110192609322	-6.622926330836573e-06	0.05486130844032493	9.890870530363898	-0.04789532215462555
1.866720	1787824725054108160	0.0012309146158279625	0.001058349612567827	-0.000763855138650915	-0.0107453669190892	9.894855311426417	-0.05547233438847854
1.870645	1787824725060108288	0.0037971147589148414	0.0013170707111156033	-0.0012022988486824248	0.11723262324331049	9.80885061883479	-0.038093284967760245
1.878967	1787824725066108160	0.0024171423124248166	0.001611141165743665	0.0012409596045798502	-0.054086854725179934	9.843542800893927	-0.04454161514735062
1.882762	1787824725072108288	-0.0012008658669038035	-0.0015291289669380995	9.959942661575086e-05	-0.024568434652996136	9.868662875209338	-0.046880863233283394
1.887059	1787824725075108352	0.001785631139776541	0.0015107415992020336	0.0032005357305333517	0.01889473949090205	9.866996730158919	-0.04152813591268749
1.892541	1787824725081107968	0.002938963100493872	-0.0024020137871459536	-0.002188691449346058	0.016503836426832674	9.842787089142032	-0.0421053356314502
1.897210	1787824725084108032	0.0038821915408792864	-0.0012753020229423152	-0.00013591405915682213	0.019968395407903693	9.772343207390445	-0.03362736992650032
1.901101	1787824725090108160	-0.0010431193103084626	0.0003977613894482763	0.0016487587195664804	-0.008852817676178744	9.835380426402482	0.038145997250908045
1.907063	1787824725096108288	-0.00044878055191997616	0.001567607420674719	0.0036431570565200557	0.05151490453498039	9.900361147611434	-0.06333324140222121
1.909168	1787824725096108288	0.0033951211077652295	-0.0016556872812664868	-0.00023598512323895642	-0.012447175459360055	9.868492144741026	0.005074536375324196
1.914792	1787824725102108160	0.0019571440622467274	-0.0006287237064556752	0.0003741244872422215	0.08689139467595298	9.761376878740304	0.041008887581013204
1.925612	1787824725114108416	0.0017845203803617499	-0.004371574356668011	-0.0014232958061405078	0.05341095399259994	9.826194971459586	-0.01062696765771386
1.929268	1787824725117108224	-0.001256270853983861	-0.0006005031727079694	0.0004848821922227096	0.03341098234398557	9.80858878292906	0.043044501991253745
1.931790	1787824725120108032	0.0015265908942232703	0.0029327923357045857	0.0008881765756063168	-0.0022632312535547927	9.806289115396902	-0.009018676183177981
1.936885	1787824725126108160	0.00010009286304221894	0.00019509088389079005	-0.0008151625686755172	0.09305384895427743	9.873191265133324	-0.011671607582205472
1.941589	1787824725129108224	0.0010578170621494557	-0.0015060660217744923	0.0035792840112136427	0.019137304919105987	9.876704195726756	0.05963580504132593
1.946120	1787824725135108352	-0.00011333329157481457	-0.0010373533702841874	0.00042128276759005677	0.0378026200983171	9.800819325562042	-0.05540969905322789
1.953437	1787824725141108224	-0.002592400922266724	0.0004017858489499545	0.0019306128874553208	0.04855807716334237	9.806359409842289	0.07698153675885569
1.957255	1787824725144108288	0.0038514568829311115	-0.0022503559495039315	-0.0029293543274197314	0.05137839793240421	9.799255257229214	-0.0454209088952784
1.961085	1787824725150108160	0.001708878693241188	0.0005990561943494444	-0.0035650653888157123	0.00048046375294813135	9.850991526805355	0.0650544684017054
1.968133	1787824725156108032	0.00012435526273691104	-0.0005084927103515011	0.001954078758916237	0.014350689239775314	9.803115233684114	0.013401500934823736
1.971473	1787824725159108096	0.0013555899920213398	-0.0018805962466078344	0.001966326827672618	-0.0038522133380021195	9.868016749858906	-0.03882854254241612
1.975401	1787824725162108160	-0.0006191672597415145	0.0021655418656984127	0.0007243079277731235	0.018387055802286303	9.856337436271884	-0.07772274727046122
1.982128	1787824725171108352	0.0007369263966082085	-0.0016581575617748976	-0.0008485798900024366	0.04138992540688896	9.821713178173415	-0.006154322041917019
1.986436	1787824725174108160	-0.0009480483430868735	-0.0023566181709547386	-0.002889109157087185	0.019924910473093235	9.855930176228483	-0.08659210229742306
1.991234	1787824725180108288	0.002864262848311452	0.0008355004183702097	-0.0026527486484838273	0.049271631976760516	9.809412689844631	-0.11535749566822728
1.996943	1787824725186108160	0.000538439416477651	-0.0005325335180460215	0.0018372502261971226	0.08249930119635947	9.85417639375935	0.009106769885084076
2.005125	1787824725192108032	0.0018720748447380862	0.0010740397496597333	0.0007023442073773183	-0.034032463798545284	9.87704674680509	-0.022756464285058536
2.009308	1787824725198108160	-0.0033628158641852987	-0.001758578193612791	0.003942828456874788	0.06300311329084868	9.815803164044484	-0.07829446041753832
2.011901	1787824725201108224	2.4460587934664623e-05	-0.0012898069299671546	-0.0007743541331640428	-0.01835088762335347	9.833137585729233	-0.013283564764521402
2.017481	1787824725204108288	-0.002293597792497844	0.0011999700045924543	7.556702287125517e-05	-0.029389700243720507	9.824499737668482	-0.14913595823565218
2.023917	1787824725213108224	0.0021092883066591633	0.0013308193717345013	-0.00030715283264429606	0.10200408156318563	9.856889872726645	-0.011763258528089926
2.029160	1787824725216108288	-0.0031593619870740964	-6.909889109695962e-05	0.001651487117836234	0.04050102048745807	9.858485383477696	0.08622189355932516
2.033676	1787824725222108160	-0.0025618630784422047	-0.0017148394902143517	-0.0034486725500922325	0.0662973177584516	9.884039447337342	-0.04788008325143945
2.037602	1787824725225108224	0.0027233847774594698	-0.00042281260924719106	0.001517197062020996	0.06031519791578875	9.827745508510993	-0.00125039611792813
2.042140	1787824725231108096	0.00297926131965318	0.0006055802711641095	0.0003797289829288301	0.030844880373025362	9.817845381346606	0.04437530435423749
2.046047	1787824725234108160	0.0002870977155132296	-0.0007897842793166364	0.0028077718015415347	0.04312096553610845	9.823293033792794	-0.0715841502419522
2.055245	1787824725243108352	-0.0019439697785625031	-0.00011324939306648249	-0.0019377880888623096	-0.013271312318408848	9.830854177756065	-0.01993721462977614
2.058170	1787824725246108416	0.00118540596383814	0.0012823364008806369	0.0015439072672461629	0.018038075061227836	9.817230038916051	-0.025002172128024143
2.061527	1787824725249108224	-0.0008775895233926438	0.0012841424166990126	0.0025149000533678223	0.006699956524079356	9.784124716293025	0.018711691268299788
2.069380	1787824725258108160	0.00010023959278899598	0.0019429081782694777	-0.000961163833124711	0.04155942450495273	9.791164408729395	-0.02107981014190893
2.072408	1787824725261108224	0.0002705486600219569	-0.0006159677507525322	0.00014967240120174546	0.0378620142113132	9.812449738028736	-0.029083334511878837
2.077501	1787824725267108096	-0.0006464204904593038	-0.0018368270560139423	4.576587248172633e-05	-0.013916213100848833	9.802287343189567	-0.037078183809598965
2.084193	1787824725273108224	0.0020871154556685294	0.004470325384623083	-0.0010617713147728052	0.06982502448304762	9.868945260782766	0.004333696120216758
2.088315	1787824725276108288	0.001323774678576176	-0.00014260075400416138	0.0019862305901536645	-0.006534276236191669	9.755696151569687	-0.03472890142277024
2.093609	1787824725282108416	-0.001411538762649996	-0.0015718422564829848	-0.0005103547722120859	0.014874025223502889	9.697520715788569	0.010610653880391792
2.096653	1787824725285107968	0.0004772857696199197	-0.0006984639912521618	-0.0011602666781805081	-0.020732820465628035	9.801549627234046	-0.03626185972537658
2.104198	1787824725291108096	0.003505074720882365	-0.0014109992039037975	-0.0011630499005082949	0.10016648243080152	9.795516483594207	-0.03804986268797511
2.106255	1787824725294108160	-0.0013103622415696276	2.1510349674384475e-05	-0.0013164002729536962	0.038572516460039105	9.735487434858683	-0.018064167948893588
2.112462	1787824725300108288	1.790801881765096e-05	9.798655107589002e-06	-0.0017924161441258142	0.006614895731348533	9.822570685284743	-0.007658889465581645
2.116581	1787824725306108160	0.0014344851267256496	-0.002114514382944153	-0.0007046968695712012	-0.024373300494529786	9.850792563945507	-0.0527273735253886
2.120716	1787824725309108224	-0.0006361858297918047	0.00026889232204947407	-0.0013337459217793973	0.0876293015247011	9.813695727770128	-0.00736773935119673
2.123460	1787824725312108288	0.0009499385786027691	0.00011813812552648629	-0.0007741546586969053	0.04979890887179862	9.752143206633091	-0.0710052757302351
2.132243	1787824725321108224	-0.0011363743876812852	0.001470372451708221	-0.00029809568718968917	0.019159741587327375	9.800267038224451	-0.06715405672361728
2.135879	1787824725324108032	0.001289660601313533	0.0016201092485707699	0.0008990599556269658	0.039827510783712924	9.856528461046175	0.007972365082616846
2.142658	1787824725330108160	-0.00012608715876792853	-0.0020050719334876186	-0.0004918695600885236	-0.0027330084963421777	9.74574788062016	-0.11143382706460273
2.148146	1787824725336108288	-0.001116310676366098	0.002581884532210066	0.0006938650692690975	0.05191122747353631	9.872573791125177	-0.006956448446820321
2.152864	1787824725342108160	0.0007651182819127562	9.716550355907838e-05	-0.002528582750464271	-0.032961028676314966	9.77526201544711	-0.054664875159945225
2.158882	1787824725348108288	-0.0006022898466121062	0.0011448111296010794	-0.0015085794486006281	0.07496339013475092	9.823073172274771	-0.09526534141807189
2.162663	1787824725351108352	-0.00044507761017784206	0.0026752352472541457	0.002067006109504991	0.041915263342279754	9.765590755118827	-0.07829762104502808
2.169554	1787824725357108224	-0.001272770926452479	-0.0010060446864810922	0.0012677133723920434	0.07576475508209568	9.817326909220922	-0.14003446355655283
2.173308	1787824725360108032	-0.001124073632109877	-0.0004020611818543123	-0.0039042533162129693	0.040377254224235395	9.808656448977189	0.024817221325456704
2.177256	1787824725366108160	-0.0014164412306875917	0.0006089247665425215	0.0012110744774713404	0.08665482196190566	9.832984513703146	0.027013624520774444
2.183049	1787824725372108288	-0.0007686155367815018	-0.0018485716427296336	-0.00035836268635763315	-0.02574765436571761	9.838241885532414	-0.06711263151614477
2.185230	1787824725372108288	0.0005034990486706173	0.0009212434718633888	0.0005523243511844811	-0.01606106014160647	9.770123331590485	-0.019961750698606243
2.190466	1787824725378108160	0.0015879690009421262	0.0014389457470200154	0.00018545427846048464	0.06584837669925496	9.820253630252262	0.005948672276288102
2.197150	1787824725384108288	0.001228161643349849	0.000459263820934136	-0.0023865669216201683	-0.031219171539248185	9.76412595331115	0.025179327113882308
2.202821	1787824725390108160	-0.0010668320621495095	-0.0018425790253197337	0.0002396361040754925	0.030607634071947835	9.794856253820756	-0.016494672931261896
2.208366	1787824725396108032	-0.0015582326290684413	-0.000490247378420083	0.0019287019664092507	-0.03203726582498302	9.79263050484855	0.002754263777383196
2.213606	1787824725402108160	-0.0016794607035272528	0.0004634749300617846	-0.0026613558856628593	0.05710967833247442	9.801161164735705	0.04558441411319439
2.215392	1787824725402108160	-0.0017356341214915035	0.0005521148992726891	-0.0005137346242995065	-0.07958655399926778	9.803834364040952	-0.06579465495400413
2.223252	1787824725411108352	-0.0008602103987002681	-0.0005159089346820342	-0.0008081049346382875	0.030396150878587443	9.752780878344346	0.07704090150933436
2.225870	1787824725414108160	0.002676315799255849	0.0002493976244322078	-0.0017839342464033628	0.009343025674646729	9.836245717676508	0.06665238344953266
2.234923	1787824725423108096	-0.0012637925412860122	0.0013346851807286323	0.0008568058593447175	-0.04857839223732939	9.899270425127865	-0.08769438540924328
2.237371	1787824725426108160	-0.002903591311398246	0.0013867541790093362	8.61294409777332e-05	0.02055998980795294	9.84509164026371	-0.012247190546912937
2.240148	1787824725429108224	0.0009544831022424518	0.002102753691757308	0.00498214239187073	0.08693689338854887	9.794729933426948	-0.019219950496862086
2.247711	1787824725435108096	0.0007963851101631362	0.0005271600828201202	-0.002164505443759471	0.05202316312564368	9.764607145709949	-0.05363611330258686
2.252467	1787824725441108224	-0.0017638531679119954	-0.0006040386053274418	0.001393598820409771	0.026610637354923843	9.7373148846561	0.044510935911024035
2.253791	1787824725441108224	0.00019786607966445932	0.0005786879980044623	-0.003624518860468619	0.04597299568431793	9.822829425960432	-0.056853279235808414
2.260411	1787824725447108352	0.001067837256320238	-0.0023277506215636976	0.0017526219329202027	0.03631442825420791	9.809527897820745	-0.0663788084273771
2.267947	1787824725456108032	-0.0015820930576126032	-0.003324759477263864	-0.0019192345883528525	0.029504067241335648	9.797077960935177	-0.059059015566844085
2.272405	1787824725459108096	-0.0022597265501615752	-0.0014580293318585294	0.002132061704425601	0.036696777107788514	9.829359584368094	-0.01770448288045714
2.277129	1787824725465108224	-0.0014778109574074712	-0.0004818561772597015	-0.0023498527418809377	0.03665661407249363	9.752502424233551	-0.047862088754338145
2.285275	1787824725474108160	-0.0017072068436891985	-0.003539805056110427	-0.001065924480505158	0.04485191499582267	9.893064183370036	-0.09094483779757227
2.287286	1787824725474108160	-0.0010664334921287994	-0.0018504195496996771	-0.0008783536781759873	0.020815166010773954	9.785980770463384	-0.01750621871477616
2.292207	1787824725480108288	0.0017663935188557153	-0.0002021315163459688	-0.001411731237497287	0.05539197546509461	9.83975773702276	0.015549430842636894
2.298774	1787824725486108416	-0.0004866206664237568	0.0014090297249667006	-0.0004316511306987806	-0.0019391264886708393	9.841711472783896	-0.04188796728266357
2.301307	1787824725489108224	-0.000681407221130375	-0.0008853274385616093	-0.00046239736738650525	-0.0025773320567178196	9.822500454368111	0.062438097796838204
2.307105	1787824725495108096	-6.9504423266577024e-06	0.0023304015544924677	0.002396013965324329	-0.05608281620374214	9.79484731291992	-0.0074476491982075725
2.311777	1787824725501108224	-0.0019348525454617055	-0.0016290157645038371	-0.0012258977172391126	0.08732691431252415	9.831302075177025	-0.011623199522322195
2.317903	1787824725507108096	-0.00038685055234681396	0.003217494053909657	0.000900877231062883	0.012676532228996635	9.773741523181876	-0.00859002902162876
2.321194	1787824725510108160	0.0006721766880528149	0.00023276560525356237	0.0012972864935970043	-0.06543278224408602	9.786262279235352	-0.07772503723995981
2.327346	1787824725516108288	-0.00404029163850217	-0.0006478273474285781	-0.0024020784987265243	0.07644296806844622	9.717168430050856	-0.04071777862519058
2.328391	1787824725516108288	-0.0005530257244416178	-0.0004293627585760949	-0.0009483100607963477	-0.033535579034983914	9.793003905428131	-0.086718061718799
2.337681	1787824725525108224	-0.001623339243588551	-0.0012627760924753058	0.0007056246411104431	0.026019356562717838	9.89519196040814	-0.010986820398237484
2.342699	1787824725531108096	0.0016796095075983402	-0.00230866408075295	0.0004629790047000525	-0.023431835655929108	9.756724787950414	0.021386695942753185
2.347877	1787824725537108224	0.004320279788647068	-0.0017186374294906903	-0.0003939868318920696	0.0495424892380391	9.816501688097347	-0.07292418999694189
2.355184	1787824725543108352	0.0013827315376696413	0.00021726653215437558	-0.0001871759075383386	0.059862676892369245	9.883417081710455	-0.02235751786915549
2.355684	1787824725543108352	-0.0005089326574998953	-0.00022646964077114372	-0.0014164674687705096	-0.019030265006406054	9.91803677152471	0.029463642386697297
2.364839	1787824725552108288	-0.0004688999389561501	0.0008160410777110584	-2.6626414120458945e-05	0.03890009288022878	9.825572175683416	-0.03360243735467742
2.369713	1787824725558108160	0.002371988862333843	0.0010092052094076843	-0.0022854650796115344	0.0682656527662912	9.874065554989915	-0.01800168030968666
2.372722	1787824725561108224	0.0003516171867198812	-0.003181165406114162	-0.0013475773103541796	0.05963964350509253	9.814229639204767	-0.09858545079395215
2.379142	1787824725567108096	-0.0004902069827629217	0.0014963558007295868	-8.858805960179084e-05	0.02049886595779086	9.73733317171602	0.005860369279575069
2.381392	1787824725570108160	-0.001322650431300013	0.0023202070653179935	0.0023458625187356744	0.054735933373828725	9.818566448171344	-0.027125231269828867
2.383379	1787824725570108160	0.0030612348917149392	-0.0007242493112025112	-0.0040829609866709325	-0.053776217876591356	9.826219300181858	-0.07462913572782881
2.393156	1787824725582108160	0.002561857186922551	-0.0010697898936232035	-0.00047514717979855634	0.10495679621682964	9.821946796342557	-0.001597244356215631
2.397619	1787824725585108224	-0.0014744685435712824	0.00033612977751303183	-0.0003863017396811303	0.06420167165878775	9.775944570348042	-0.1041902503953951
2.400492	1787824725588108288	0.0006719131730126874	-0.0013588177760050124	0.0013046421518549457	-0.05211153434111722	9.770729118971916	0.02069827088831489
2.406353	1787824725594108160	0.002929354183452813	-0.0009448276933003957	-0.0019773282584136494	0.028839563210814028	9.876394523530912	0.038371225212965
2.412162	1787824725600108032	-0.0001099275496400826	-0.0010707982947066247	0.0024588218249752894	-0.042343044954499545	9.77448872800795	0.08462765859240462
2.418649	1787824725606108160	-0.0008187099913281583	0.0010927279544307533	0.002006957615788386	0.02809343544733926	9.74300036095709	-0.06433022531482449
2.422144	1787824725609108224	0.0004554167426754458	-0.0012754753559565892	0.0012067526164754598	-0.03903616871640492	9.845004994856591	0.011988959083634704
2.425800	1787824725615108352	0.002810845770605362	-0.002653068719069835	-0.00036102157053757053	0.004306023073476439	9.814087649898564	-0.06184021674840955
2.432160	1787824725621108224	-0.0035230218979955354	-0.0013202509292526542	-0.0035712594696970476	-0.04560716282268294	9.900190215242313	-0.008691025416597577
2.436908	1787824725624108288	-0.0013321916491823434	-0.0014988770671538042	0.00079953607801245	0.015856093967565894	9.807012783661875	0.029487022874459243
2.443867	1787824725633108224	0.002988342704251335	-0.0018998428173350815	-6.666437708498953e-05	-0.009651071639167487	9.859907515560648	-0.0420229267846873
2.446472	1787824725633108224	-0.0015112369188399278	-0.0014402991513638257	-0.00039203957006011007	-0.014168601334107335	9.845139869631238	-0.04705998429005755
2.452611	1787824725642108160	-0.0005364751912046374	0.0013226741867999423	-0.0007083708357973942	0.02067421159523576	9.770965886071119	-0.016414142219565026
2.457450	1787824725645108224	0.0029798353425945978	-0.0009691877363580933	-0.0008095669534713441	0.05423532758961794	9.815198137348206	0.00494623597785003
2.460470	1787824725648108288	-0.0001695594060587822	0.0006974650435065661	0.0032316714693463003	0.08653907019185972	9.833814898810752	0.018605918563958303
2.468866	1787824725657108224	-0.0024196356839185614	0.0020676823841377923	-0.000925172648992132	0.016564611351330222	9.761107991631045	-0.05640340562416198
2.472543	1787824725660108032	0.0006183509080600868	-4.262316521739326e-05	0.002178831364499867	-0.027771027049519725	9.851137692395287	-0.04543229550524454
2.478512	1787824725666108160	-5.623186678773974e-05	-0.000688409718933411	-0.0021567049410639288	0.007378052661710769	9.817416442669957	-0.059016766501150286
2.485843	1787824725675108096	-0.0022549669376265794	0.0025875075703098624	-0.0007023334496503687	0.00525511044604951	9.902824907014638	-0.027413943693608483
2.490035	1787824725678108160	-0.0003027627560694684	-0.0025421841521269368	-0.0021699386170611055	0.049053772841073325	9.857232412034502	0.03613224613113182
2.493344	1787824725681108224	-0.00020288748173716308	0.0004676853493449163	-5.617294629497907e-06	0.045353720502997644	9.7984943277735	-0.002523478439716287
2.497683	1787824725687108352	0.0023862189817640627	0.0016284225105454224	-0.0014911045542122588	0.05343917031712074	9.767696721408406	0.08311606159307706
2.503699	1787824725693108224	-3.544654960147098e-05	0.002552741513942267	0.0004265970585874676	0.028236293763346874	9.80686835460739	-0.007509391313910634
2.504904	1787824725693108224	-0.0015623733200838988	-0.0001807783313849278	0.000840242369825492	-0.009628716713796968	9.773268554858419	0.09761830607714783
2.510848	1787824725699108096	0.0009807308377268332	-0.002595203655411048	-0.0005342805549802273	0.10477728410221389	9.80094611946226	-0.08463016517722488
2.519112	1787824725708108288	0.001099102126557685	-0.0009641770604420182	-0.0017575048211616135	-0.0728958912858157	9.756298068485728	-0.0018951860626285101
2.520782	1787824725708108288	-0.002210739320403084	0.0019445125517774892	0.0009808555301764642	0.030014760587654177	9.748265269762385	-0.0036149210042852355
2.525616	1787824725714108160	-7.16198226545515e-05	0.000318528150496818	-0.0003699767054717378	0.0390792190367036	9.840359933066784	-0.05248079290790772
2.534509	1787824725723108352	-0.00028245730130026844	-0.001285949791690845	-8.898591000102621e-05	0.07273354472861895	9.860087349109387	-0.011357205717925027
2.535009	1787824725723108352	-0.0004112477159580479	-0.0007954547795708592	0.0003124101717177112	0.09104108188081864	9.808750673723575	-0.004203005210595662
2.543394	1787824725732108032	-0.001673195607293619	-0.001543257089049288	0.00016530025716912574	0.06435729265606993	9.759297345208582	-0.08382675659567475
2.545684	1787824725735108096	0.0014694417060503605	0.0008619094248434459	0.00036507709673628923	0.015396470111800899	9.828998085234126	-0.003818867263460455
2.551031	1787824725738108160	-0.0005167932274248477	-0.000625590794006244	0.002341924784448682	0.020197565066159016	9.849828060765676	0.04645424280048245
2.557367	1787824725744108288	0.000897230104739318	-0.0017667829718577787	-0.0037582711430109747	0.05184269794344344	9.862038626238443	-0.05855619492763751
2.560665	1787824725750108160	0.00289083933957705	0.001512737592625175	-8.00888658272984e-05	0.022893947490171367	9.836851837868313	-0.042134972405254836
2.566960	1787824725756108288	0.0023418189828307828	0.00028582839163466926	-0.004159638604971964	0.024685160201088838	9.78500349857985	-0.03698498394833821
2.573212	1787824725762108160	-1.8258981932944352e-05	-5.179731155264412e-05	-0.0009214083785310088	-0.0016434671059988928	9.754111695883227	-0.03397278909441878
2.576524	1787824725765108224	-0.001033050615062871	0.00029158599120389036	-0.002071758347214323	-0.04891115594062065	9.766322521379376	0.005010263754170612
2.587115	1787824725774108160	-0.0016634123569279986	-0.00013996864795142634	-0.0001471353174449968	0.034096490958919194	9.745587769407013	0.028595853841438895
2.590434	1787824725777108224	-0.0010812656309807207	0.0016586316659207886	-0.00029508043417281876	0.12852065893901132	9.829795855753488	-0.09392579343564136
2.592211	1787824725780108288	0.0008275553895860818	0.0016799888799589645	-0.0004873738660445958	-0.02524184535457155	9.775912904886914	-0.08880612990234438
2.597935	1787824725786108160	0.0013828596746234161	-0.0006908885182707766	0.0009949533712497293	0.07196131140428647	9.796667467068922	-0.0267323670886683
2.601354	1787824725789108224	-0.0016950658713480123	0.0005519274867143915	-0.00047867937561468755	0.05710228854832678	9.781696553318541	-0.03754565567545781
2.605851	1787824725795108352	0.0009009541403383329	0.0007497390414397303	-0.0017235301232763052	0.020416703948973415	9.810268315910207	-0.05438529395932684
2.610762	1787824725798108160	0.0016863439217979063	-0.001475557736390538	-0.00243213916812662	0.0201403535957521	9.837588705405423	0.01859583006578367
2.617688	1787824725807108096	0.0018763703920943256	-0.0006394696059030727	-0.0005345353880105315	0.04389724869335501	9.930686239770957	-0.04903728538620216
2.622347	1787824725810108160	-0.0006777696210718221	-0.002694949593015023	0.0005096372751072764	0.025816832730580143	9.797942720254078	-0.01820587608012771
2.629103	1787824725816108288	0.0011596384228709507	0.0020023856459803475	-0.003202657106559756	-0.004326490307356906	9.883434796748393	-0.014822962981693751
2.634572	1787824725822108160	0.0005371325668813198	-0.0026083032099803788	0.0015218488154718364	0.11366319648350201	9.826406512274001	0.0007161339702023255
2.636817	1787824725825108224	0.004186115671068099	-0.0005504722125270846	0.0007222951199317647	-0.003411823909271	9.81072075601628	-0.05445006595770087
2.645074	1787824725834108160	-0.0002333717971489686	-0.00034118448442103596	-0.0012954254458735998	0.09097810300364859	9.83580963446554	-0.01548748071257147
2.645960	1787824725834108160	0.0023271667218460875	-0.0003380665586128406	0.0012295771130395258	0.04925446711773948	9.786304000770278	-0.04041324191697218
2.649949	1787824725837108224	-3.0171942327520654e-05	-0.0006067875262483664	-0.0013874900335653286	0.06953174071916629	9.925295177941022	-0.03112301076049548
2.657380	1787824725846108160	-0.0008188227336386212	-0.0006903253289235925	-0.002451000514847308	0.05279095550912126	9.784858214410379	0.00993146097835678
2.661276	1787824725849108224	0.001968976122268844	0.0020311773352030115	0.0011474360080715282	0.09113999105555615	9.867509138131407	-0.0952404910191005
2.670267	1787824725858108160	0.0032530148082622174	0.0005893363579784169	-0.0007822749583514861	0.06687606469627683	9.814245732101678	-0.09004865439117671
2.672432	1787824725861108224	0.000970068655843532	-0.0004252509407531718	-0.0019030323181733646	0.03898913240388718	9.80780092453065	0.027446910566784048
2.678884	1787824725867108096	-0.0004958324637211591	0.002393064865422935	-0.003486027358323473	-0.05098801373561365	9.821058570157945	-0.010628420921532628
2.682252	1787824725870108160	-0.001385935217184659	-0.000778736273132908	-0.0005175767307993651	0.03326269244218319	9.777028392359055	-0.10260975037805636
2.686474	1787824725873108224	0.004564529835061133	-0.0021340388249549824	-0.0011984330286529876	0.028553751054195182	9.883687032394336	0.042681167096726036
2.693826	1787824725882108160	2.487107906609632e-05	0.0008476247800480495	0.0005362055055030436	0.1695065369210802	9.711008345481341	0.011197173209822248
2.698695	1787824725888108288	-0.0006673425462559955	-0.0004727041233049551	-0.0009080492780647765	0.050420121431907064	9.780907012554389	-0.0898034079619223
2.700441	1787824725888108288	0.0015855364874881091	-0.0001342202160138261	0.0006075631767463577	0.033200141136646016	9.786252357776897	-0.023442824448674068
2.706494	1787824725894108416	0.0003375097516655063	-0.001560423662120945	-0.0003231299127055547	0.10930039886259889	9.876120576812829	-0.06716524772043084
2.714805	1787824725903108096	0.0010673554976677096	0.001470074609989067	0.0022358880438083212	0.03500496426531069	9.906206182377499	-0.09838043245403577
2.715811	1787824725903108096	5.199667843469378e-05	-0.0009187136343726712	-0.0003235875642766078	0.07202590231884243	9.767048454543422	-0.09739023425944324
2.722504	1787824725912108288	-0.0017027904764729705	0.0037411694319421976	-0.0008625119671993389	0.054570351912629496	9.827294135021202	0.007967092322289274
2.725942	1787824725915108096	-0.0018891418813458112	-0.0015873809752437532	-0.0029259867202576398	0.04839140944368375	9.81895113914176	-0.058764959125892156
2.731881	1787824725921108224	0.002100633662867496	-0.00024444787128379214	0.0003634544065466554	-0.011571602635735097	9.88540009528233	-0.11919736028327364
2.738020	1787824725927108352	-0.0021653345291068895	0.002228074201141625	0.0018087054803145753	0.003462410769744205	9.883380398243206	-0.028826453279091065
2.743803	1787824725933107968	-0.0013030291730454899	-0.0034900734790474014	-0.0016488095402918024	-0.03681499082556744	9.853979280029833	0.0267535845207715
2.747217	1787824725936108032	-0.0031628524975995964	0.003963758706178571	-0.0015286411498935358	-0.020845322370479966	9.783187345101487	-0.058136502593276816
2.748977	1787824725936108032	0.0009093708094022815	-0.001482714192231162	-0.0012915067061359828	0.017411249638839776	9.761879536614954	-0.09090394799319589
2.757570	1787824725945108224	0.001835822352750585	-0.0006927188603670992	-0.001064905026795526	0.011277241164137478	9.864166120089724	-0.05911844137482851
2.760993	1787824725948108288	0.00100119886479717	0.00188626565131629	0.003261978590053839	-0.013693898002077945	9.747675414637941	-0.004704921286889183
2.767640	1787824725957108224	-0.0003160562276768093	0.0028019225708251785	-0.00046832374919713335	0.01457870924758286	9.794510583381191	-0.1137047841085281
2.775072	1787824725963108352	-1.7370557939750856e-05	0.0019801974742444895	0.0031447797156505704	-0.03230863514544457	9.874027373461036	0.014843470993887643
2.778199	1787824725966108416	0.001222296074451725	-0.0014966864279877979	-0.00012062040610820443	-0.07931290425021255	9.853088849291815	-0.047723700752642914
2.780421	1787824725969108224	-0.0013291630100088134	0.0013002857634775917	0.0018916271968358379	0.0005392515864093075	9.799853401501785	-0.07141286600661849
2.787419	1787824725975108096	0.0009870670066213093	0.0015408508730203132	-0.0024885458051458922	0.006399045070392316	9.812217328371906	-0.039587822714427706
2.794296	1787824725981108224	0.0001816480819734163	-0.0022479598982984576	-0.0033845439798604986	-0.029235549671580464	9.839356311562407	-0.020571846524450366
2.800065	1787824725987108352	-0.0008129883714976465	-0.001012120936443014	-1.1897569341878586e-05	-0.003971734009657231	9.884763273429671	-0.11589693776147957
2.804954	1787824725993108224	-0.00025967372562758594	0.001195843100814871	0.0013136371084487251	-0.016822083376499188	9.863202956798714	0.002160015189488891
2.807761	1787824725996108288	-0.0038720996252614263	-0.0005175886487375569	-0.0004895288423572668	0.04138821250979061	9.921929274015854	0.04004113740899537
2.811919	1787824725999108352	0.0013215656246399919	0.0014752330910875358	0.00043503344180415254	-0.002948192426145191	9.80695226668502	0.007563919550139152
2.817410	1787824726005108224	0.001661843208563155	-0.002166529878938872	-0.00042643687927777416	0.01957859508018616	9.837960834581805	-0.029510565496994743
2.822573	1787824726011108096	-0.0004888628649467122	-0.0015902053785985747	0.00016423045105284115	-0.004523721978136837	9.834493175843045	-0.09764494377891365
2.830905	1787824726020108288	0.0016503046480885273	-0.0016833169374408494	-0.00017679925025379365	0.025177113535419415	9.84106592020614	-0.06343920138355488
2.836235	1787824726023108352	-0.0015245178919541392	-0.0036574802266678527	-0.0019010798387836428	0.02161400791236855	9.86606439047049	-0.03124446495573171
2.837490	1787824726026108160	-0.0004941412280239762	0.0033483900083343364	-0.00019065109476133944	0.01922189606647949	9.728339505208165	-0.040031593055842
2.842444	1787824726029108224	0.0022324363751218793	0.004083706421604378	-0.0001584891091965009	0.0580135693796827	9.72365214624647	0.038442345390340055
2.846977	1787824726035108096	0.0016360333514728017	-0.00041453017240158474	-0.0010704727759925264	0.09171194012127698	9.76833282279622	-0.04209900929131635
2.854238	1787824726041108224	0.002160074417886586	-0.00020742763626709556	-0.0006602068518627865	0.02527109367686518	9.815529530402905	-0.014326827542694083
2.857326	1787824726044108032	0.00011129939622222592	-0.0004359615287322456	-0.00012038282418929473	0.059198784285327294	9.864453098861103	-0.11383649740059756
2.863978	1787824726053108224	0.003082872528403747	-0.002768095686447316	0.00019228177497482272	-0.03532244291723298	9.72437378281952	-0.0018054080799307544
2.867948	1787824726056108288	-0.0007756885219324521	0.0021962348901049438	0.0007844442261954726	0.025923186110040342	9.841099939713407	0.018371229395846927
2.872122	1787824726059108352	0.002648844360533998	-0.0005159104192274544	-0.0027470545247259073	0.06327506441322252	9.797621882754852	-0.08341279204946711
2.878642	1787824726068108288	0.0011768993724692338	0.005190463616042684	0.0008270923189170406	0.034342073061085075	9.890905162080333	-0.025446820024885613
2.884895	1787824726074108160	0.001070266587209093	0.003595041470909952	0.0005463026660683145	0.009651414153369203	9.753671851319574	-0.012461156955633886
2.889424	1787824726077108224	-0.002307481462306698	0.00031371555753933577	-0.0005808000533459349	0.01933915704018594	9.89774790813584	0.04200193185261572
2.893634	1787824726083108096	0.0025406065211906197	-0.0001440125030055778	-0.002684304554455933	0.014737800705244337	9.891905527093764	-0.016625112507837592
2.897422	1787824726086108160	0.0017802005082212795	-0.002008983660916654	-0.003817851345201336	0.042327111855897714	9.927502728186914	-0.014074667771535324
2.903983	1787824726092108288	0.0025854603532761184	0.0010934475875298626	-0.0013563617338944259	0.002370099623457609	9.814365545232743	-0.012009510601838256
2.907692	1787824726095108352	0.0011099191525851494	0.000246057917119759	0.0011586392565199831	-0.05995693085783567	9.862267483638771	-0.06677666017233763
2.916672	1787824726104108032	0.0012934455276446093	0.0015883184616843765	-0.001429171342936593	0.059735853473788535	9.848001960264401	-0.03938919191180652
2.917172	1787824726104108032	0.000911109211921886	0.00038280185025852136	-0.0016634797652809235	0.02195807751624651	9.844643071953334	0.02187396821540167
2.923447	1787824726110108160	-0.0012328547731054636	-0.003260508032195775	9.32263822219333e-05	0.050898752221629776	9.773630201602504	-0.07686451284950539
2.929748	1787824726119108096	-0.0016693072050455104	-0.001568804249954458	0.0008819937825398171	0.02848227059757303	9.756177232874112	-0.05527033629493722
2.932538	1787824726122108160	0.001095708992902916	0.0016091643282908315	0.0021236109026952148	0.06241092269237913	9.875256004869927	-0.04626073794883594
2.937938	1787824726125108224	-0.00011750971549540091	-0.0013397239628748284	0.0017503520470466586	0.07152332761459002	9.818956963871646	-0.0385287565664893
2.943009	1787824726131108352	0.0035271276180163296	-0.0005345896210807551	0.0007125690259582407	0.10613768554794331	9.868084891844388	0.010847330763495047
2.948848	1787824726137107968	0.0007041870496104259	0.0012639612839222601	-0.00019557314095485504	0.0657454027706995	9.94399409930435	-0.038400103521616415
2.951901	1787824726140108032	-0.00018401137965082216	-0.0022537420820196454	0.0007088310144520225	0.10402967829606471	9.815625312660007	-0.06121811776324902
2.953701	1787824726143108096	-0.0017632520561466525	0.002459646665772665	0.00021387370156306825	0.00695136805899136	9.837766040711166	0.04915935420362724
2.962809	1787824726152108288	-0.0003222286587418085	5.568726094526625e-06	0.002578051026064736	-0.003653660268810005	9.871590468947474	0.0036649338331462313
2.967481	1787824726155108096	-0.00037646686204445074	-0.0006073914315986429	0.0018886423203311152	0.09557419976631966	9.808645843114643	0.015654228839338778
2.972191	1787824726161108224	-0.0013641861474640055	-0.00038923744949078787	-0.004972627759397426	0.03348292952341687	9.832945782264249	0.03484736256451325
2.978791	1787824726167108352	-0.001110997401912206	-0.0004732948495782194	0.0007075156149781017	-0.006236567309860358	9.772798107629812	-0.026356570305118652
2.983220	1787824726170108416	0.0003805221885612674	7.518126458628873e-05	0.0007258809927149641	0.04471883236472319	9.842673588371772	-0.026633018432018547
2.986215	1787824726173108224	0.0023001439419370394	0.001245955721825537	-0.00016198241610515708	0.044365125346944964	9.776955345778848	0.017861293687513442
2.991949	1787824726179108096	-0.0015293472630726569	0.002005358267957	-8.386085711647935e-05	-0.016146118859951472	9.80536023141707	-0.06631234579870814
2.995656	1787824726185108224	-0.0013314134939419883	-0.0005337205248543607	-0.00044754849120695855	-0.04319681401887551	9.88831603371834	-0.036961406421415884
3.004962	1787824726194108160	-0.0015460051948478274	-0.00028237411334547185	-0.0005966369963279608	0.07864009609366349	9.792934954149375	0.07184514733385201
3.006598	1787824726194108160	0.003441945776457233	0.002038148378351928	0.003373878959577341	0.028220503440325145	9.805116359718376	-0.06996309373392465
3.012190	1787824726200108288	0.0008868659630358499	0.0007509534017635971	-0.0016504673632488226	-0.007387781954965741	9.894816563397802	0.06283885982938166
3.020466	1787824726209108224	-3.797133511539765e-05	0.0013546754942111124	-7.778206727580082e-05	0.04046840936060288	9.87102398064442	-0.03113930761687942
3.023326	1787824726212108032	-0.000330547911537428	0.00037241954827001687	0.00015923405750197965	-0.07063928324249233	9.740051516684861	-0.027893662404017572
3.026446	1787824726215108096	-0.0009316934286606384	-0.002161055268360999	0.002195515110832849	0.04273732368823621	9.892664782406268	-0.0903265888470973
3.029552	1787824726218108160	0.001826185439104902	0.0002085506846130328	0.0027972566136869334	-0.0527425252164669	9.806567220396774	-0.08652258454961896
3.038036	1787824726227108352	0.003654528501141729	0.0009502541164950862	0.003139430670734577	-0.006013232809788008	9.829786794020418	0.0038336277645429767
3.042896	1787824726230108160	0.0015346617601244958	0.0018115632587651042	0.00166971208545348	0.04943530357402033	9.83377784411972	-0.06621674876770353
3.048349	1787824726236108288	-0.0016419829514155609	0.0009796009237963443	-0.0002377353357633419	-0.006962515967468844	9.85066094182525	0.08298646179009084
3.054579	1787824726242108160	0.0014167891269378065	0.0008359963296569704	-0.0004587460321438993	-0.050625692917722426	9.785656513076061	0.020673397867486003
3.057469	1787824726245108224	-0.0012621307857649453	-5.632609798119662e-05	-0.0018052782782377907	0.06240383675260564	9.821204438067035	-0.01710171016231693
3.059620	1787824726248108032	0.001965755868786057	0.0010806778973675242	0.0010786831108138251	-0.0010545502045510892	9.899405801032847	0.013241113175961591
3.067570	1787824726257108224	-0.00012655801274166181	0.0012037160000296675	0.002189524506189284	0.05383419878194895	9.82455305717933	0.0007523270661990399
3.071114	1787824726260108288	0.0018229580805509192	0.0012318981729167366	-0.0011634465189459765	0.02462162121304013	9.828915151181157	-0.09781555857466467
3.076266	1787824726263108352	-0.0007098766476251781	0.0005470638008895815	0.0002841109311940588	-0.03386254285362701	9.876759215827015	-0.04707910918072579
3.083024	1787824726272108288	0.0011503589729848784	0.00048005136201905384	0.0011440243648272472	0.10420659506037801	9.828124193802793	0.005082485301123676
3.087326	1787824726275108096	-0.0008278490837057855	0.0023588754883036	-0.0001422238602553035	0.05978314410373628	9.85716197258144	0.04092859294425198
3.094386	1787824726281108224	-0.0008634294235148862	-0.0002651502822960542	-0.0010373138862870062	0.001863678794276423	9.84373978093794	-0.05028106925524815
3.097008	1787824726284108288	-0.0017861028202382841	0.002095285886346076	-0.0022005049387422205	0.010632121564700555	9.813645381859866	-0.024883702709540396
3.103734	1787824726293108224	0.0014662382720271785	-0.0009775280176886922	-0.00046052746590329627	0.03485489875658231	9.756088190283585	-0.01842245485078811
3.108825	1787824726296108288	-0.00018008849778314447	0.0018028724321726135	-0.0007922039569782506	0.040308922562898745	9.837037083263837	-0.009356019161069472
3.113457	1787824726302108160	-0.0019501779085959504	0.0014696280315897189	-0.0010011110233074923	0.024274561242659844	9.887083952906195	-0.047407570309240234
3.118645	1787824726308108032	0.0017192597417840488	0.0013482583518170227	-0.002131244096583071	0.05102867161722762	9.832295701523181	-0.04190857272154987
3.121669	1787824726311108096	0.0009322859456033669	-0.00040919318578682123	0.001503419122997459	0.06346566082342596	9.80778456443955	0.008283550832435704
3.125941	1787824726314108160	-1.4583662301676398e-05	0.0009770580672751488	-0.002288700160292639	0.03218024158693266	9.917277192692161	-0.07147317712364967
3.132268	1787824726320108288	0.001995952333176625	-0.004028950427778113	-0.0034561732893511445	0.031366304397717586	9.76686049884045	0.031469431775408264
3.138640	1787824726326108160	0.0003757192364794528	0.0001918645270339326	-0.0033896341742788902	0.015238751110039472	9.790599099538369	-0.0016361309251084581
3.142703	1787824726332108288	-0.0013074417304260243	-0.0003576349760681161	-0.00052052160446695	0.002171769173423259	9.851166022401111	0.023692804150150328
3.145048	1787824726332108288	0.002077030048553837	0.0005256653596263408	-0.00013946242495713196	0.11667650857358842	9.866621936772269	-0.01349682064805798
3.151749	1787824726341108224	-0.0001383991647811463	0.001997674225907434	-0.0005153940649453428	-0.01544765523577233	9.841292395332312	-0.029320711741456725
3.157803	1787824726347108096	0.0011720897637289434	-0.00032221387748475664	-0.001827334945499158	-0.00982742261633232	9.81028572431712	-0.0400268881922046
3.161807	1787824726350108160	-0.0014245720916409286	-0.0016127042605426564	0.001200568504117703	0.06329254506262255	9.860776575213983	-0.06240315495342019
3.169442	1787824726356108288	0.001166627872179866	-0.0018810241537171911	7.158327735587469e-05	0.07697947245298342	9.872989633522945	0.02427852469419895
3.171582	1787824726359108096	-0.0003492991460603988	-0.0011192598797448933	-0.001229282939699075	0.0353323284783537	9.830097243745735	0.013614817598287858
3.180721	1787824726368108288	0.0018828862711810733	0.00355186792054135	0.0007185722064361927	0.04021581162913474	9.889782161397408	-0.001543515919330763
3.184662	1787824726374108416	-0.001367462974786617	-0.0018723746976247084	-0.0011200333935860677	0.03409081956370957	9.861128337607244	-0.04185383871056815
3.186724	1787824726374108416	-9.03761040766261e-05	0.000883238822338944	0.0005287501989479392	0.008568812840321356	9.739497374746465	-0.03287828290275967
3.193395	1787824726380108032	0.0007531960576155275	0.00022209522379676295	-0.0026182377472885026	0.003104271422501092	9.851740848769744	-0.0021634293601478886
3.199187	1787824726386108160	0.0009625222922565157	0.0004712493612448631	-0.0009769016529225525	0.02315121452765313	9.753922583134557	0.03691998064947546
3.205212	1787824726392108288	0.0024274442714151763	-0.00012843579835161736	-0.0009373634706820835	0.036197815215530595	9.894787762104167	0.0028177808621375096
3.208510	1787824726398108160	0.002248773908556673	-0.0011091760805192403	0.001807048493207551	0.12288759982858957	9.865835550600773	-0.04885837490272449
3.214830	1787824726404108288	-0.0015276345912027907	-0.0014457280177588181	-0.0033310449786165676	0.04433816307123496	9.788834289760931	-0.001867454024270243
3.219601	1787824726407108352	0.0016193973062852167	0.0004532011730645194	-0.0009964825234120935	0.0030846975039081972	9.858327127229375	-0.09234888682838722
3.222743	1787824726410108160	0.0014254764900501204	0.003413453037954635	-0.0018889842837779348	0.08561072860071642	9.856477706645851	-0.13082880022746296
3.228167	1787824726416108032	-0.00010957384982950481	-0.0009118299534494445	-0.0015300823098905237	-0.010350709435207953	9.80346298847293	0.03649044852080598
3.231305	1787824726419108096	-0.0012457954607391695	0.0025934164500640783	0.000267934517995718	0.009941540945418065	9.826472160291674	-0.0312543492888839
3.238423	1787824726425108224	-0.0022383337260164244	0.0005560792090849716	-0.0017656652512441598	0.002014118428476541	9.899020796693524	0.0166668030731138
3.242174	1787824726431108352	0.001342000329996878	9.352185640693265e-05	-0.001855407161097105	0.0033119613692268665	9.878782319636374	-0.07181800479731851
3.248867	1787824726437108224	-0.0004816035345190068	0.0029801387149915514	-0.002422843086785954	0.04316923724518425	9.922405824642317	0.016509795893144594
3.252586	1787824726440108288	0.00037091837254355425	0.00021970611138369425	-0.0018357553992241502	0.059650594559268966	9.848987426612222	0.006086007847078721
3.259753	1787824726449108224	-0.00035567609009549316	-0.0008671905104261171	0.0012334660880171325	0.06593546133563877	9.839845989609508	-0.0598830914869049
3.261879	1787824726449108224	-0.0014255821070753522	-0.0004227345025738031	0.0012914611814898282	0.09326730091145831	9.760568712430285	0.020259747147197818
3.269521	1787824726458108160	0.001169502707404523	0.0009558482953813684	0.0008120264068350461	-0.01357648084875155	9.850668348165861	0.06599164953801706
3.270021	1787824726458108160	0.00203276718630604	-0.0027974393126418587	0.004081566976809884	0.13278206171799928	9.86760908872132	-0.032216758073978655
3.279180	1787824726467108352	0.0009204641677490697	0.0010802280792611757	0.00020847110115645434	0.02918494370833465	9.855607157156555	0.00604782539418746
3.280340	1787824726467108352	0.0006455988540196574	-0.0017033108430928332	0.0007146424950040353	-0.044622886907674006	9.771139782565996	-0.11749108459063518
3.287275	1787824726476108288	0.000703100078078558	1.9606271651949946e-05	0.00024694901099785616	0.0224913183571797	9.779977485891816	0.037212329439833325
3.291987	1787824726479108096	0.002382644559518694	0.0007091055772807879	-0.0008560885111859558	0.03674543636922479	9.7703142435356	0.021507370647556395
3.297218	1787824726485108224	0.0016582854374046147	0.0010394371473511938	0.000265681391292261	0.06648635448491584	9.80276781911384	-0.05917576013317135
3.303809	1787824726491108096	-0.0009277206786693687	-0.00020183636958020788	0.0013216742879151927	-0.004929693884710602	9.832883365185067	-0.019283955743448565
3.311247	1787824726500108288	-0.0002891717547250994	0.00042419701235206486	0.0005972048224322616	0.04394346037613276	9.824935985668859	-0.12709410067222243
3.312693	1787824726500108288	0.002502314518992419	-0.0003676957180574566	-0.0022036384965110753	0.08512517376490518	9.882068237430266	0.0098575995842178
3.317779	1787824726506108160	-0.0022467432616814003	0.0024357669891259745	-0.000254924308952823	0.07084202227345651	9.885556691734694	-0.04839570438463268
3.325465	1787824726512108032	-0.0011677459217235393	-0.0023417759409888324	-0.002152317979773434	0.05584618714358888	9.952051671048563	0.008733066030138154
3.326685	1787824726515108096	0.0029116102164505144	-0.0005277440295927372	-0.002615706114985985	-0.07721356032889756	9.779553309312249	-0.034573082825981684
3.333581	1787824726521108224	-0.0020031955475473167	0.0002389605218828951	8.436593177661841e-05	0.05154340798758657	9.784304362882219	0.07668155952941735
3.335437	1787824726524108288	-0.0007727074868819868	0.0003987702640883083	0.0015409942300086364	0.03690331549121103	9.897066727289788	0.03325451512565737
3.341701	1787824726530108160	0.000892624358113648	0.0023041756792301243	0.0013978274889513294	0.024883078399023498	9.868251197204186	-0.05587559632976798
3.347048	1787824726536108288	2.830262102276239e-05	-0.004483681527893316	0.0033405363928101063	-0.008905637172978244	9.831215326934226	-0.012610931322003315
3.350284	1787824726539108352	-0.0010747848125176268	-0.0006124158723320293	0.0021498347018022094	0.07639809149209684	9.737878291202792	-0.11926969861664101
3.358300	1787824726545108224	0.0016632609958783637	-0.0014531046105140237	-0.0012598740251405873	0.06334635273940828	9.85231391404175	0.032648129055792036
3.362561	1787824726551108096	0.0008744102195674722	-0.0011700822384390866	-0.0011029310482969402	-0.03428525400697645	9.87692341317844	-0.0019088485994566903
3.367980	1787824726557108224	0.000664098521283492	-0.0008510740678838468	0.00043861054442900576	0.04135954642272134	9.825830722834068	0.006400560885782777
3.372782	1787824726560108288	-0.00034896932644678673	-0.0021187756988217963	0.0013682708958604986	0.010150714070937955	9.799644743119591	-0.04098747808371547
3.376889	1787824726566108160	0.0032692683269981205	0.0018338365507938911	-0.0005543254828893056	0.0659745953629037	9.773776165509316	-0.04782342105726553
3.382907	1787824726572108288	0.00011488476482846213	8.47901010054031e-05	-0.001947285877288155	-0.04538448443711535	9.823158734102634	-0.062131993375848425
3.387093	1787824726575108352	-0.0004963656424792749	0.0009670176857293695	-0.0015144715039524276	0.01725392655665292	9.774669961096093	-0.048973747483234326
3.389533	1787824726578108416	0.0004712466305701944	-0.0018897449218366934	0.0010507044259349483	0.003922717966277932	9.768080295932162	-0.04927759733404351
3.398885	1787824726587108096	-0.0009850863756040345	0.0006619311765214841	-0.0004918627012615322	-0.0018453837233756362	9.819704291635032	-0.10028167728375939
3.402491	1787824726590108160	0.0010961438639922674	-0.0022726830583148956	-0.00035902084897795016	0.06607843897599928	9.802372577829585	-0.08376753161103259
3.409319	1787824726596108288	0.0003882641659157621	0.0002751369640636727	0.0008309077899287341	0.054344882577097575	9.782051795180031	-0.059234005227741374
3.412153	1787824726599108096	-0.0015618610113877665	0.001471147825861059	-0.0022643379721607195	-0.013693599150776406	9.83332055772796	0.0009426491651150538
3.417730	1787824726605108224	0.0006310220354683812	0.0005286665707562189	-0.00158083160932351	-0.015615480200330815	9.81724144181341	-0.0940387134673892
3.424237	1787824726611108352	0.002716768535304962	-0.001209319665868912	0.0016058423500916212	0.03777046831184317	9.773509860686996	-0.03167601112041386
3.426888	1787824726614108416	0.0013505957849227663	-0.00043672682519594133	0.0017321775682680085	-0.004584209053804876	9.855392202694608	-0.06451399826749685
3.432016	1787824726620108032	0.002186326428924139	0.002317429177786036	0.0003906666529905142	0.03255407523758211	9.79184701469867	-0.030074609139626438
3.436035	1787824726623108096	-0.0004791151131729951	-0.0001473891711177444	0.0006668564946345519	0.03755250614492904	9.801788408298922	-0.004364710628707153
3.441816	1787824726629108224	-0.0002910399801952145	0.0025814881320986873	0.0008165048800550328	0.07964433307974733	9.759205185695896	-0.016906533283049016
3.444719	1787824726632108288	0.0004939067319146826	-5.2899113228785705e-05	0.0008335762448707316	0.0762301286112158	9.879905976404466	-0.02179402199900806
3.451598	1787824726641108224	-2.4554741415658315e-05	-0.0017648124351682878	-0.0003580187500060809	0.01794027923790367	9.802278113147946	-0.05100627394722833
3.457423	1787824726644108288	0.0003625586925758557	0.0015471607073539847	-0.00022298144340975745	0.02367329417658379	9.85719684967434	-0.02365777668253273
3.463979	1787824726653108224	0.0006473787549652089	-0.0016645115117506707	0.0012916932516210764	-0.01851380607596957	9.888914110006386	-0.043188296806894955
3.466195	1787824726653108224	0.0035298697007871034	-0.0021421561917975064	-0.0011877975784413692	-0.0014766361084646434	9.794089209269119	0.0007116326610553496
3.472643	1787824726662108160	-0.0002626187825427658	0.0027849307275598233	0.000977539389965565	0.017138826196379738	9.850016379458998	-0.03657055828991556
3.477545	1787824726665108224	-0.0014647766783866328	0.0008605547367398838	0.002649478337179214	0.049493858096880367	9.749075706158491	0.033447787303440696
3.485767	1787824726674108160	0.0015720887474125925	0.0015068100046422281	0.0015033710841830528	0.011371070720636662	9.860195545417096	-0.0020552769017881563
3.487843	1787824726677108224	-0.0010416168672755279	0.0014258498963004755	7.214175247854219e-05	0.027989256403764515	9.785947365833831	-0.04184946982016589
3.492192	1787824726680108288	-0.0022181117107537302	-0.00046416258933510313	0.0002055457909002421	0.016552349218808486	9.821749436443243	-0.029633842986402776
3.498465	1787824726686108160	-7.254672170349375e-05	0.0017947212889584674	-0.0014031981433686325	0.0815617204914538	9.853820266973377	-0.04191549992778955
3.499321	1787824726686108160	-0.0006976949549962492	-0.002272453070314454	0.00018757429780668725	0.15128439177303465	9.806744534691623	-0.008340990739768975
3.507046	1787824726695108096	-0.0007174610927728308	-0.00041674040325054154	-0.0005277226367095218	0.01237430573166642	9.762310204879649	0.017388041396450712
3.513361	1787824726701108224	-0.00018401953085938195	-0.0015145103707608876	0.0010190961912830648	0.01578992252632991	9.81227394816244	-0.0672113609196004
3.518891	1787824726707108352	-0.000676102909453648	0.000705122153198062	0.0022366927833430547	0.025341013250822393	9.826361086930994	-0.027922313443886158
3.524215	1787824726713108224	-0.001162006199892992	-0.0009221447761168214	-0.0022210846786451187	0.07614998806199944	9.879941994375564	-0.06784315881077208
3.529002	1787824726716108288	0.0014617414168628443	0.0001713140678422934	-0.0005063499163655645	0.010917507372456167	9.84312542586981	-0.08100396786296493
3.534461	1787824726722108160	-0.0004531206969400457	0.0008591211183237033	0.002241310219936583	0.035732201282172665	9.857401143138198	0.011419989716901773
3.538957	1787824726728108288	0.000595854708809358	0.0014939482521444379	0.0012691680087591434	0.03286988430326098	9.775942416642094	0.04867100508738932
3.541000	1787824726728108288	0.0015862263372406784	-0.0006746810061219085	0.0011650778358006854	-0.0007801610398115583	9.865415829945189	0.004020438181039844
3.548286	1787824726737108224	-0.001960905942320512	0.00033412597307219986	0.0010934080195689382	-0.04460622621306058	9.807377596494707	-0.02526651496605979
3.551903	1787824726740108288	0.001179485470539097	-0.0006744744739028672	-0.0019167418060312396	0.03057818654128723	9.859033590955281	-0.05085950522293359
3.556869	1787824726746108416	0.000779524205530168	0.002846544449417764	0.0007231822411747428	0.010629444945404527	9.843120952523897	0.008514012634907794
3.562756	1787824726752108032	0.0013889432926693721	0.0011060269957837824	-0.0032306583600278283	0.05531235736779611	9.838249962216093	-0.13423533714093236
3.567896	1787824726755108096	0.0021180323488530634	0.000649970163934036	-0.0003490892357306555	0.04069282211785373	9.884627436332442	-0.03811394925843107
3.571360	1787824726758108160	0.00017261890007570487	0.0021117186083039565	-0.0014485538590772924	0.11676287873848773	9.84967137775909	-0.030661134959942302
3.579347	1787824726767108096	8.497202344546746e-05	0.0008036223193619169	-0.0010178738080804282	0.033845852383440976	9.876469672868655	-0.03454701084453431
3.581384	1787824726770108160	-0.0015533464427621869	0.003323200869118821	-0.0011261229336161683	0.055057459314476816	9.807348667072759	-0.04687893448887277
3.587159	1787824726776108288	0.0005450918286855872	0.0008171688807585478	-0.0003482585779175703	0.08995930468649625	9.844610413503796	-0.020770204132997894
3.592540	1787824726782108416	0.0018288149480201752	-0.001777751801028793	-0.0010937545429798906	-0.03909993406597996	9.858521456884475	-0.05337895967897867
3.597262	1787824726785107968	0.00036076178339448814	0.0009917272308802025	-0.003414329322216764	0.14215111128772687	9.80121363206691	-0.057982337839440845
3.602184	1787824726791108096	0.0016775012876080232	-0.0007630353706232003	-0.0006783281535804509	-0.02033105767353862	9.784669866181972	0.06782376625030315
3.606063	1787824726794108160	0.0035002966879790335	0.00027505769815153517	0.0020786421413957735	-0.02468071410076582	9.880478280690303	-0.032515064176375355
3.613625	1787824726803108096	-0.0015283164970937716	-0.0015073688455370315	-0.00025872824604182836	0.08681514848303558	9.815716059632226	-0.10930580411502586
3.620491	1787824726809108224	-0.0011458371335284552	0.000679359939160391	-0.0005256386764562326	0.012720980036707488	9.833621506968894	-0.005677574451213731
3.621359	1787824726809108224	3.207807819773908e-05	-0.0008835322395204025	0.0015249541837808838	0.07012631411454093	9.821731163943477	-0.057948852488182996
3.628067	1787824726815108352	-0.0005324818814719077	0.0004902444919344141	-0.0013593444636124325	0.07154141998028747	9.810933059996694	-0.010391278916004531
3.633309	1787824726821108224	-0.0025321899631184685	7.81751680973713e-05	-0.0008238509663019227	0.16963694317589595	9.907472787252278	-0.07657008392059114
3.639482	1787824726827108096	3.5182714663464776e-05	0.0012426044528219043	-0.0018112189419166392	0.011470100323105012	9.778328806619498	-0.008305213912591165
3.641325	1787824726830108160	-0.0005684416599366649	0.004179806742999796	0.0007293539840856488	-0.043817702814290455	9.792096425238597	-0.05544846317569844
3.648613	1787824726836108288	-0.001714434383792054	0.0013186130573836596	0.00198089506110179	-0.01697332482391002	9.787465659003336	-0.0017843926991654886
3.653848	1787824726842108160	0.004193318986750842	-0.0022066094783546476	-0.0021876517670137126	-0.07141459109805649	9.90094389910872	-0.02259600794720353
3.655876	1787824726845108224	-0.0013459553278916971	-0.00012538835568698894	-0.0008252729274298828	0.0499799453933355	9.83922399617088	-0.026493340125655435
3.661716	1787824726851108352	-0.0026595122432188974	-0.0019423926846205916	0.001960064379148736	-0.05787726186235177	9.839250148951136	-0.017017828856952966
3.667533	1787824726857108224	0.0011745932572215078	-2.196881775609338e-05	0.0028493400771648185	-0.006289324878374018	9.864112139644591	-0.10852029243595436
3.672096	1787824726860108032	0.0012621867421839152	-0.0016626136960515995	-0.001204194605761012	-0.07905032778149854	9.853053094143736	0.012122389386476466
3.676257	1787824726863108096	0.0021661082804175663	-0.002996576590455026	-0.0014814185481669651	-0.050190905626850205	9.768420363353234	0.03174415989820439
3.683824	1787824726872108288	0.0012222557821958853	-0.0017441112269244432	-0.0006733887721554864	0.05021936898268173	9.843852138024412	-0.11667792776580764
3.687854	1787824726875108352	0.0010587139750018865	0.0002915052996408119	-0.0004620751634414795	0.10568723650252626	9.844023086606999	0.0377044952800086
3.693430	1787824726881108224	0.0015904742432087768	-0.0008045243655443474	-0.001211214454484266	-0.0165453951694726	9.86385056784464	-0.03906275735944536
3.696471	1787824726884108288	-0.0003136745491811169	1.4613582649041756e-05	-0.000348101975951559	0.004887488273007758	9.78187383433904	-0.027158721002300826
3.701232	1787824726890108160	0.00439877217732385	-0.0013126020518613739	-0.0016923094002764803	0.033303203110886165	9.810332602589671	0.012739271297215644
3.708333	1787824726896108032	0.00029722057792716603	-0.0006202361468546645	-0.0003984481555424173	-0.004385510690346074	9.850032011575081	-0.0006026460034201098
3.711553	1787824726899108096	-0.0005407279932181223	0.002903423611796833	-0.001808685748226395	-0.011795491625853	9.866402476646362	-0.011901876158061967
3.716006	1787824726905108224	-0.0002368085985555998	0.00020288760666915798	0.0016009477368792804	-0.001751887029380523	9.759662271085972	-0.0010489388286901505
3.721165	1787824726908108288	0.0007046429720814424	0.0015914977114580566	0.0011406218822676319	0.027012226437021607	9.810696221864301	-0.036513958094844354
3.728531	1787824726917108224	-0.0025913934023731947	0.0007811367374745765	-0.00017950342508240972	0.06196273384450054	9.80921013147354	-0.03248122068416232
3.732137	1787824726920108288	0.0016542678847906362	-0.0011182526993011779	0.0018870108253490384	-0.047051718460558806	9.835802434140634	0.01890938868299674
3.737632	1787824726926108160	-4.499602468940959e-05	-0.0016594255669983321	-0.0027443934852382445	-0.0527134815413078	9.803592451961554	0.005165337765075825
3.743474	1787824726932108288	0.0010823159307235541	4.7040524175094114e-05	-0.0006031939444228204	0.000283508058645153	9.772967097436739	-0.0012873660879480012
3.746964	1787824726935108096	0.0011861882773607142	-5.856002679659426e-05	0.0022822901300385986	0.04450261767546537	9.773338280535597	-0.06778723558589356
3.750321	1787824726938108160	0.0010184734080481	-0.0003770905933307871	-0.0022467847711684676	0.015906811588410865	9.906644434511497	-0.032813059043986015
3.758528	1787824726947108352	0.001043997040963329	0.00033321390276330005	0.003018825839057872	0.06740798683901261	9.816483041233633	0.052026502611137115
3.762621	1787824726950108416	0.002362655392861745	-0.0005462866951846671	0.0008592895761991202	0.08084197519524008	9.781697440388887	0.024165120107354
3.767216	1787824726956108032	0.0016814955479896013	0.00463836612362719	-0.0020502526596388997	-0.019350217925835043	9.793461006964895	-0.04885380605851074
3.771923	1787824726959108096	-0.003417028425159464	0.0005796850836774114	0.0007411701813069078	0.023475604398267253	9.855578957515116	-0.011090046593015787
3.779246	1787824726968108288	-0.0012558790529372573	-0.0025120118790760986	0.0019931570757807456	-0.10404366589190692	9.754730134338287	0.05033305715244732
3.783551	1787824726971108096	-0.0021568176724765494	-0.0012092647148476917	-0.00147998296146587	0.052870693654684366	9.853761341750008	0.053750453694995565
3.787533	1787824726977108224	0.0002846478556483293	0.0008034376601482976	-0.0011608433168450072	0.05234790512133749	9.82958810495137	-0.022539210872920747
3.792228	1787824726980108288	-0.0005022787099946645	0.00030334519378412785	0.0034396135196503035	0.02884185623129219	9.774932026068807	-0.019178173067698992
3.797361	1787824726986108416	0.0012464892887085047	0.002108821721445108	-0.0006099298139931305	0.03657594953928078	9.773663767774396	-0.04695662367068458
3.801620	1787824726989108224	0.0009550130637854998	-0.0012027611054337588	0.00030759715912418806	0.015600011077022309	9.869627834337745	0.026057460841530912
3.808348	1787824726995108096	0.0015049907803126779	-0.0020600690850678845	0.00010681145716388138	0.09809921816191251	9.857844570331407	0.00248766341727695
3.813379	1787824727001108224	0.00019148818934956052	-0.0009109742680871861	-0.0016657307841232223	0.009060535243452496	9.824971461976746	-0.049107291666534644
3.818239	1787824727007108096	-0.0024252981175503	-0.0021934643959411236	-0.0006343963201451727	-0.04590778132186457	9.84550979028038	0.05448535642568231
3.822411	1787824727010108160	-0.0010660708958941034	-0.0007131078454833136	0.001235165364885518	0.028298181225876188	9.84454690507057	0.011417396200526057
3.827162	1787824727016108288	0.0005572533140745996	-0.0011029327885683242	-0.0009155326738668517	0.0018503851744484066	9.857102907801185	-0.07546333244837886
3.833161	1787824727022108416	0.0019482664671225953	0.0010443048631885085	-0.0017378322875155206	0.009030456526555406	9.731138819039057	-0.024622399322239325
3.838209	1787824727025108224	-0.0007335973499258969	0.00042371876630121	-8.032455777808347e-05	0.013856250725834653	9.764847472294957	-0.0398340114222424
3.843294	1787824727031108096	-0.00322054202728183	-0.00016052327786888562	-4.9162443974148144e-05	-0.05968752791168121	9.791950322155435	-0.047710339565428514
3.848528	1787824727037108224	0.0032824643154607328	0.0019419289264116198	-0.0018783639854080788	-0.004482559031161237	9.849839130970965	-0.08089566918043528
