# time_s	timestamp_ns	wx	wy	wz	ax	ay	az
0.003739	1787824723191108352	-2.2300308680029433e-05	5.4763142182891265e-05	-8.373194507322086e-06	0.0017330961792795078	9.812011967475986	0.0056754193850057
0.009165	1787824723197108224	-4.316639425366155e-06	7.924758472580892e-05	9.924371206956101e-05	0.0018792004753146016	9.813014051617756	0.008185954946646251
0.013645	1787824723203108352	8.094640207266095e-05	3.176836173732152e-05	0.00012420692758215767	0.00732682048352073	9.81762337222994	0.0017254516724561774
0.019573	1787824723209108224	-0.00010503869192507357	-4.431529789273698e-05	0.00016596151878368035	0.0046555041458357475	9.813786817943493	0.002595383235764672
0.021349	1787824723209108224	5.5833293837008536e-05	0.00015491426726952048	0.00010034624871228664	0.009166617445582483	9.815458934248076	0.003120945693136993
0.026574	1787824723215108096	0.00011684528614819905	4.965904233593303e-05	-6.202912665912569e-05	0.002553897486576131	9.816958588352845	0.0002634061838014158
0.031066	1787824723218108160	0.00019203142087792865	3.203710235236864e-05	-0.00021920440922311654	0.0049533955650526845	9.815004331526737	0.001769365844426045
0.036195	1787824723224108288	-7.425007844105228e-05	0.0001065089932587706	-9.360593675018833e-05	0.003926450868707748	9.809470417268773	0.004705049988187677
0.044276	1787824723233108224	1.8478938170476969e-06	0.0001598849273227081	0.00016193412893419402	0.0045965480227870385	9.815482336735277	0.0024114632476517892
0.047995	1787824723236108288	-0.00020969922541397767	-1.884440888321814e-05	-0.00010473872856388927	0.0011768864548799308	9.810595984576493	0.001226191713582556
0.051173	1787824723239108352	6.528904501197794e-05	8.11609445249218e-05	4.5348994073717006e-05	0.005345193998406688	9.804742726834036	0.003811133502665599
0.056259	1787824723245108224	0.0001270795858749067	0.00011133403265376754	-5.302635424777269e-05	0.003184470787305307	9.810671172266192	0.0036644223852112068
0.064277	1787824723251108096	-8.40762801637065e-05	0.00017223807288109985	-2.155045152180061e-05	0.007337047714280097	9.806272638252157	0.004050194709209219
0.065820	1787824723254108160	-3.3873173631669134e-05	0.00010032755538597445	3.7923497561477096e-06	0.004159354432509767	9.812350790910385	0.0026150068229125398
0.071729	1787824723260108288	-2.2777888253301684e-06	-4.3945231379503685e-05	-2.439373804467311e-05	0.0044994203936075524	9.810798435768287	0.001422420757206793
0.078251	1787824723266108160	8.97501561007663e-05	0.00016240245724372468	-0.0002678009462665444	0.00757435574413881	9.813466754326793	0.009018602884881273
0.084396	1787824723272108288	0.00019284686563022304	-1.2390125362064162e-05	-0.00011762809931126403	0.005397082288612161	9.820236555036995	0.007517481237444492
0.089470	1787824723278108160	0.00011511252796829603	4.5789371350907955e-05	-0.00011669920059657422	0.011441310246424934	9.806998671688287	0.004825343286866272
0.091740	1787824723281108224	4.584142851451791e-05	1.4758849422417227e-05	-0.00017189263793252052	0.0002054087607575748	9.816044108974905	-0.0008936129415050452
0.095589	1787824723284108288	-4.643811465671306e-05	-7.611412473111867e-05	-0.00014855992056982473	0.005264704194271211	9.815042409041247	0.002358733044915828
0.100848	1787824723290108160	0.00017170707679412618	0.00014601654354037005	-5.728067403963859e-05	0.004871072603692871	9.809326481674281	0.004986498521846988
0.108133	1787824723296108288	0.00011338836446213509	-2.662045731387672e-05	0.00012872112100591903	-0.0006893347135847076	9.812654740499118	-0.001024799678288032
0.112823	1787824723302108160	-6.053943272336594e-06	6.391346667430015e-05	6.795329170308322e-05	0.006585517382814675	9.812840836190423	-0.0007041454862014972
0.119316	1787824723308108032	-7.265990206477459e-05	4.301490523536834e-05	-4.7294601489780954e-05	0.007607528076016505	9.81133016448421	0.0032819706076965844
0.123777	1787824723311108096	6.135534615484304e-05	0.00011683104237921448	3.0373322877954247e-05	0.008999171732157148	9.813028132902796	0.0018762087272654214
0.129154	1787824723317108224	8.253906318655734e-05	-1.087963501698074e-05	-7.016486491311886e-05	0.008103637322416467	9.813604109956234	0.0023134425035327044
0.130972	1787824723320108288	7.843646757590392e-05	-6.510803021212862e-05	-4.462235515504579e-05	0.007149986864480481	9.8148590172068	0.003299436991896653
0.135870	1787824723323108096	0.00019671479927821812	4.918865232036888e-05	3.1231388369450016e-05	0.0038773435137737546	9.813877469953503	0.0033592166742748403
0.142515	1787824723332108288	-7.668778713936152e-05	0.00022713236207591323	-7.872831606062259e-06	0.007252795918584654	9.811889610834973	0.006211089786190258
0.148159	1787824723335108352	2.338690668197321e-05	3.517095335858479e-05	-5.49523238841838e-05	0.0024148384245924076	9.81315116134417	0.004543281810045186
0.151360	1787824723338108416	-5.9551304222398086e-05	0.00029292569799013794	-9.854815932492158e-06	0.008342512124855837	9.810934359317915	0.0023830535718128184
0.159484	1787824723347108096	5.0682940872828934e-05	2.4949660093183985e-05	-8.579630465333747e-05	3.764194673104831e-05	9.809971923963198	0.0018335052268840088
0.160016	1787824723347108096	-3.366247050020526e-05	0.00011586318663640952	1.0988116251783543e-05	0.008291685117056902	9.814670791639196	0.005314660386628524
0.167345	1787824723356108288	5.1460934569576294e-05	3.7346016603659465e-05	-1.277723191303858e-05	0.007897688668896771	9.812985936802395	0.002695152493177809
0.171127	1787824723359108096	0.0001657032769495995	8.07583068487252e-05	-0.00010515772926698511	0.006388183266225497	9.812495555575328	0.0021947294526896226
0.178135	1787824723365108224	-5.97079374184087e-05	0.00011674344898074079	2.3624491915436773e-06	0.00012953376547508548	9.804370451904434	0.0023640103685208173
0.183258	1787824723371108352	0.0002875436755961171	-4.515106979440728e-05	1.2799131685767024e-05	0.006300357653211128	9.813890060802418	0.004819730121932762
0.187002	1787824723374108416	-0.00011136702539481888	3.4644366005267634e-05	0.00016094178597884898	0.003910952754478827	9.816952299182708	0.008128166604615298
0.193029	1787824723380108032	0.00011090250023343795	0.0002509250599985345	-2.05862670913605e-05	0.005994430824176788	9.814027279950997	0.006111629700732153
0.199428	1787824723386108160	2.9191649220279443e-05	0.00018745141532374547	-4.889499110583807e-05	0.0022192446603326666	9.812530993361802	0.004657512611594545
0.201417	1787824723389108224	0.00017028262607936392	-5.5905306343995473e-05	-0.00021149962302470746	0.0073771100588505755	9.81505936537563	0.007907769921545444
0.206326	1787824723395108096	1.3709565929732534e-05	0.0001016166240342324	2.8791605205499006e-05	0.0021883120026287358	9.81355828869302	0.002538434994013708
0.210990	1787824723398108160	6.178269417603257e-05	-1.2128418053169783e-05	-7.909619528456992e-05	0.001735288451848306	9.811277255425702	0.0006053665660537091
0.216923	1787824723404108288	-0.00013968020993685023	-0.000111811485865143	6.817217759568941e-05	0.003707138398867318	9.811092619406734	0.0014097745049843284
0.220963	1787824723410108160	-5.0419253835097465e-05	9.845618091127134e-05	-3.092615237505419e-05	0.004464894028134973	9.812367585107053	0.001009368363801243
0.224758	1787824723413108224	0.00010525546549472317	0.00011460809422779795	4.41804693693822e-05	0.0011929956690554925	9.815727436692804	-0.0002026957323132011
0.233473	1787824723422108160	0.00016591276179498521	3.038110192557555e-05	-8.824614425044135e-05	0.006329424258398268	9.811396875116282	0.005293403318897678
0.235592	1787824723425108224	4.711898507665368e-05	1.665791528611529e-05	4.955864598300609e-05	0.004182610016201208	9.815203268450388	0.00830918993114604
0.238922	1787824723428108288	-6.082032270031381e-06	6.451843596138007e-05	9.930001258200967e-05	0.00422795561823921	9.811335317733826	0.0033637501287263707
0.248179	1787824723437108224	6.724564187251218e-05	2.9689843567816992e-05	-7.854692710200857e-05	0.003976862118152306	9.813551906881722	0.0036289199299715637
0.250512	1787824723440108288	4.74326590840358e-05	0.0002198421819792461	1.652037053753777e-05	0.008092951610041095	9.810256779573644	-0.001456708530833886
0.258186	1787824723446108160	0.0001559189397376763	0.00015448651916277723	-3.3138874746754395e-05	0.0025223589613797386	9.814248176304975	0.001962958447416328
0.264041	1787824723452108032	0.00013156874034290489	-5.437853841205161e-05	-0.00012787953904936394	0.0040397445647242436	9.812544371506448	-0.0004657218014276505
0.265827	1787824723455108096	5.8680697752078e-05	7.271498262165343e-05	-9.438480981543031e-05	0.008190912909910364	9.810681996105421	0.0042332982648844416
0.270588	1787824723458108160	6.475111232201855e-05	-8.089809830757924e-06	-0.00021381081437201417	0.0063725338778801086	9.810236506062981	0.0018533042236693103
0.279067	1787824723467108352	-1.8869743822586185e-05	9.578727310817318e-05	-4.108529577390708e-05	-0.001457985656747038	9.80909004223584	0.00605594739529796
0.279809	1787824723467108352	-2.342205012612531e-05	3.451745344829662e-05	-9.32615787297068e-05	0.008554106941955464	9.812503480029694	-0.001306958298515975
0.285537	1787824723473108224	-1.958290772715502e-05	0.00013200068823612142	-0.00022214418738695252	0.0016292029766075398	9.810625383608318	0.007175599581114351
0.291174	1787824723479108096	-6.361154253848412e-05	-8.960993233441143e-05	-9.342627280151462e-05	0.001788628982655768	9.807269521589168	0.0011581891771398698
0.296206	1787824723485108224	9.888980042288107e-05	0.0001024562736974629	-9.069408153261225e-05	0.008957555727970485	9.8139923661964	0.0036841220263108937
0.304313	1787824723491108096	-4.60935949742816e-06	0.00017836961327777698	-5.8397967037416605e-05	0.004520136051305576	9.808752539351005	0.0018022493459453107
0.307201	1787824723494108160	-0.00010367244956709983	1.0998339914524776e-05	-5.676334324294245e-06	0.009283135787769035	9.811629766919747	0.00018776479767677184
0.309661	1787824723497108224	5.58259047106225e-05	-3.0353593756700496e-05	-0.00010766861320191672	0.00596584358617091	9.80936892391039	-0.0008364707572898079
0.319605	1787824723509108224	-0.0001701860987517144	-3.8218613510807985e-05	-9.959433222618433e-05	0.006788158159007704	9.81339091144026	0.005388179172809666
0.323365	1787824723512108032	1.8788962053071603e-05	-0.00025777563077718175	5.609080470147898e-05	0.006806248186873614	9.813011316741749	-0.002269241042984618
0.327183	1787824723515108096	2.6102916281995795e-06	-6.380392739297245e-05	-0.00015151914028072415	0.008413472455532669	9.812655298080637	0.0039993757676347625
0.335162	1787824723524108288	5.68191391169374e-05	6.237787874117914e-05	-8.294787381759091e-05	0.0054910967764576915	9.808220610566213	0.0046732871293077806
0.338803	1787824723527108096	4.773635845504012e-06	-0.0001418724417671046	-0.00019020571565286573	0.000790010165334018	9.805278882143359	0.005964732048904086
0.343594	1787824723533108224	-0.00018928588389175544	0.00010806028328982234	8.332663389990092e-05	0.00215133143824474	9.812384345917692	0.0007266400064053096
0.346507	1787824723536108288	8.500333697027221e-05	0.00025002766367849025	-4.901546425978137e-05	0.0014757325412465935	9.810125041232837	0.00010283920665084571
0.352432	1787824723539108352	0.00025991205857018814	2.3551205819831514e-05	-5.335665005187804e-05	0.008152845704144538	9.811336088243358	0.0005172907603516134
0.359777	1787824723548108032	-6.057662348538422e-06	-5.143411137653514e-05	3.0503215594805567e-05	0.01086910309317899	9.8132219658404	0.0014587348858254518
0.363466	1787824723551108096	-1.5965969031133798e-05	0.00013359071153377689	-5.399892487741243e-05	0.005845194862198597	9.812247985713894	0.007178351043087363
0.367118	1787824723554108160	0.00018487010635928456	0.00010881796653512525	-1.0979580484355263e-06	0.006485744095413162	9.807533689232717	0.0029862041747753115
0.370406	1787824723557108224	-1.0428589259409729e-05	0.00014151064603807296	-4.533071295593793e-05	0.004014373657087829	9.810007717882684	0.002116552553962575
0.378212	1787824723566108160	-5.796384627154308e-05	0.00012679098216824463	-5.6075942003204384e-05	0.004239866326575529	9.813133858094542	0.003501520518899535
0.382783	1787824723572108288	0.0001455876385014767	1.7607897468045148e-05	-6.957954639644242e-05	0.005759968309850769	9.809133802228452	0.009637583054819227
0.389027	1787824723578108416	-0.00011145320897412946	2.1871312839370072e-05	5.017569814776494e-05	0.003686907761884024	9.8109229751136	-0.0018491277127488663
0.393568	1787824723581107968	0.00028317002787848914	0.00023288628062451285	-7.379552529911956e-05	0.004795533858806711	9.811503354152123	-0.0004236221792977444
0.398841	1787824723587108096	0.00011402830320214617	6.010802816549702e-05	4.777547958007487e-05	0.003667218417167351	9.810812085805376	0.003631627946551773
0.402577	1787824723590108160	5.400466202185343e-05	0.0002333356765991154	8.585441214181049e-06	0.004882395559732461	9.813053400873693	-0.002830330539589304
0.408110	1787824723596108288	0.00010445687485444048	3.560402614003782e-05	5.0926331572976845e-05	0.008383665243400708	9.807499022369992	0.00241248383179137
0.411844	1787824723599108096	4.832035391808034e-05	0.00017183918853124917	-8.788103232232401e-05	0.008026380396396424	9.8140391231076	0.0031602020017066747
0.418049	1787824723605108224	7.299795547905738e-05	-6.251682139472522e-05	-2.056280308322396e-05	0.001899283096277737	9.810908118848566	0.0007381773712664156
0.423129	1787824723611108352	0.00014523810631361748	0.0002377986540578129	-5.2503068837913467e-05	0.0024210097824206747	9.809847572517757	0.003909515036440996
0.428082	1787824723617108224	-6.133937501975687e-05	4.487603536193342e-05	-8.730485796486973e-05	0.006479614279692383	9.806915817472921	0.007502562918908034
0.431360	1787824723620108032	9.609761684674449e-05	-8.027241079669692e-06	8.690455699194776e-05	0.002402629822962883	9.812011788517058	0.006220025846624873
0.438149	1787824723626108160	-0.00018775340883261764	0.00010653982984819868	-9.233600109120736e-05	0.000440599773484319	9.810842107657113	0.0013019151161238576
0.442289	1787824723629108224	-8.359645781380322e-06	4.6763385759330105e-05	3.910574287853428e-05	0.0019266432736674403	9.813485207162016	0.005725637025136444
0.445963	1787824723635108352	0.00010319822772187807	-2.3453088845255928e-05	7.34342415894386e-05	0.00428057106005237	9.810720357413137	0.0019839968470502273
0.452541	1787824723641108224	0.00012872978787950023	-8.157745470720195e-05	-4.6728808835981824e-05	0.005236982492831593	9.812606804438783	-0.004928527746274631
0.458467	1787824723647108352	2.04254604409035e-05	-6.106684938497634e-05	0.00011620523355059407	0.0079531912031762	9.811039068421229	0.005151938329789401
0.461778	1787824723650108160	0.00016314175334600824	8.835063461770187e-05	-2.7519293552240894e-05	0.0034032705198527935	9.80986407548234	0.0028216958856140334
0.469866	1787824723659108096	-1.9301481619066572e-05	5.736259420321434e-06	-9.662689804425581e-05	0.005786586089059149	9.807548158623492	-9.979182581796925e-05
0.473003	1787824723662108160	7.286330773145441e-05	6.63958595895794e-05	5.709943755449049e-05	0.010089981791885125	9.811797835812863	-0.0016149332747272083
0.479101	1787824723668108288	3.313231735439836e-05	-3.291032383429406e-05	6.837953281834553e-05	0.008096644390171177	9.812310951006891	-0.0011046384945303327
0.483484	1787824723671108352	9.753127185606632e-05	1.905154750548071e-05	1.9000728115613647e-07	-0.0006566040867266769	9.81116542420886	0.008552902377755994
0.484855	1787824723674108160	0.00012599973959114057	0.00011009124692527072	0.00013832614547798798	0.003945443374488053	9.80611568741594	0.004313979870983859
0.489695	1787824723677108224	-6.247108717922581e-05	5.9375507732408315e-05	8.094739457455395e-06	0.0038899495466795035	9.812274875139499	0.007538650468912557
0.498176	1787824723686108160	7.607019087179742e-05	0.00010052810196275822	-8.158618398553132e-05	0.004637170066594289	9.815316010414262	0.0066025318885497945
0.501827	1787824723689108224	0.0001400732383998966	0.0002106732944473606	-5.612074307849395e-05	0.010257118324490742	9.807202600649754	0.0028187333550836247
0.506661	1787824723695108096	5.206282586876173e-05	-0.00012768387995982562	2.4692840544936036e-06	0.005819105108251099	9.811334415568162	0.004075520109043822
0.513264	1787824723701108224	5.224802662848907e-05	-2.9771932337470055e-06	5.81121836338662e-05	0.0062573526953138055	9.807757911634917	0.0055807936335355145
0.518005	1787824723707108352	4.541959724481731e-05	-4.7140214700408594e-05	-2.478939755326467e-05	-0.00017636425881434152	9.814920095658998	0.0007789544425679065
0.522872	1787824723710108160	6.968177546510017e-05	5.135117649466507e-05	-4.068077044864271e-05	0.0022191397439430315	9.80597332019184	0.002862984314574461
0.526057	1787824723713108224	4.5085487939114724e-05	0.00013483810651321527	-2.1297763079320336e-06	0.007766624806229617	9.811152484946355	-4.328330479890603e-05
0.534551	1787824723722108160	8.374082006152377e-05	-4.5127688996959126e-05	0.0002565692221433346	0.005096536577651922	9.80960946076672	-0.001153371344947939
0.535051	1787824723722108160	3.0480317186341245e-05	-0.00022143239868298764	-0.00014455747501340312	0.0037491152439864447	9.811136357091007	0.0023788737223007844
0.543976	1787824723731108096	0.00011561951261068364	0.00013466303857145236	-2.1064234221940817e-05	0.007630765245005179	9.816260054900852	0.0015475610575631168
0.546681	1787824723734108160	7.434654378569056e-06	0.00016563724830521878	-0.00014170272721826242	0.005915159092865348	9.814141061639347	-0.0044061610798951795
0.553705	1787824723743108352	1.387901151503588e-05	3.457181872279502e-05	-0.0001374680187131376	0.004091772384955398	9.811376601229263	-0.000248360178687043
0.557558	1787824723746108416	0.00013127666765259076	0.0001440241832913906	9.206015133143702e-05	0.006751665062337332	9.807529430348149	0.003933606863324919
0.562921	1787824723752108032	-1.6890735764728375e-05	6.977702469546885e-05	-2.5425482782635736e-06	0.0015504919497747408	9.807974862643151	0.005375995079164378
0.569629	1787824723758108160	-5.836025878057384e-06	-3.632830737855658e-05	2.5639507517694994e-05	0.006674974793293736	9.811561304696568	0.000597646949579866
0.571493	1787824723758108160	7.744889053710403e-05	-4.448559274321585e-05	-0.0002125154252882775	0.004359897452854822	9.812027195746456	0.004045122656499384
0.574268	1787824723761108224	2.439045254043489e-05	0.00012107896602273817	-0.0001999075956792631	0.006559561588260146	9.8160242074903	0.006024576381243702
0.581443	1787824723770108160	2.0949507413233852e-05	0.0001371727517216951	0.0001775475468055086	0.005402743083368558	9.81054480812317	0.008750385382558784
0.583849	1787824723773108224	-5.6307788750193226e-05	6.52223779445051e-05	3.0728167372115206e-05	0.008740429658794367	9.811804586164005	0.0032229660081398315
0.591399	1787824723779108352	0.0001293523193456625	-0.00011972078386447791	-1.899814297197398e-05	0.010094880287111814	9.807447351378153	0.0027419278101668437
0.596201	1787824723785107968	0.00024796910593338805	7.96077476532738e-05	0.000146745890144871	0.00814704612837978	9.811990516638042	0.005090057441604231
0.603123	1787824723791108096	0.00012421154993426305	0.0001661134393409508	0.0001269144710488869	0.005568317302384867	9.81124561015475	-0.0007839900149088377
0.606474	1787824723794108160	-9.934233213276439e-06	0.00019254798421065405	-1.139523734225983e-05	0.0038614759426850863	9.806861603809082	0.0022987303146299928
0.612931	1787824723800108288	8.247458090193326e-05	3.306404237168062e-05	-3.931442936020552e-05	0.0031124504416541188	9.809559530309553	-4.4325824700706604e-05
0.615120	1787824723803108096	-5.711464736236521e-05	-0.00012396665430772184	-1.0409485068605903e-05	0.002331452520747668	9.812068997686973	0.002535771367178565
0.622855	1787824723812108288	5.710622395101411e-06	3.83030140744817e-05	4.096269064349038e-05	0.005475147359532275	9.809890024697763	0.001011268001905755
0.627107	1787824723815108352	-8.137483306680742e-06	-4.3839470916830126e-05	-4.350373337101796e-05	0.0004237128332528362	9.80916109299057	0.0013980481434762
0.633883	1787824723821108224	3.302044593793682e-05	0.00013165124415514507	6.249761943027053e-05	0.005822456960191449	9.807688602210384	0.008407199872411905
0.640898	1787824723830108160	-2.05247785606433e-05	-7.521842030732844e-05	8.398500070611498e-05	0.007650533968916165	9.810258668324314	-0.000765264184590051
0.643531	1787824723833108224	-2.7021880182440507e-05	3.766807682945474e-05	-3.6395619524702175e-05	0.0032938264211997506	9.81218911203862	0.008230067497390461
0.648780	1787824723836108288	0.0001424978275241925	-3.57358760872052e-05	-7.601227652610487e-05	0.0005643230367715964	9.812322048777094	0.004634333796585963
0.651119	1787824723839108352	-9.892667481183755e-05	0.00014120859953735575	0.000283327926361445	0.007366578315102486	9.811851976506237	0.008570859431243886
0.656473	1787824723845108224	3.685464883425345e-05	-3.32855713358924e-05	0.0001374095863388178	0.009327303427239975	9.807310250945429	0.0016860158460920887
0.665215	1787824723854108160	-4.2969504661852416e-05	0.000194382596331464	-3.3442524039405426e-05	0.0003887099752771968	9.812505926136518	-0.00273417815382639
0.665715	1787824723854108160	-6.966109995243444e-05	7.680246574082254e-05	-8.42446939614702e-05	0.007148253253939167	9.812405333798417	-0.0015430928952140303
0.672063	1787824723860108032	9.858323361324576e-05	3.134909894892428e-05	0.0001569664565000656	0.0026151706484068113	9.804831705283705	0.000412930011809619
0.678177	1787824723866108160	-0.00012604077197196818	-8.500766140711463e-05	9.531047972596164e-05	0.0014448207027515066	9.809655995432541	0.004936531051499515
0.683917	1787824723872108288	-3.1662110072801266e-05	0.0001343191216380454	0.00020459153260670863	0.0009779987380183468	9.811287274492964	0.004435843192475945
0.686656	1787824723875108352	-0.00018428498744759635	-7.023203327887336e-05	1.2035267080022773e-05	0.00668971164457567	9.816815830958951	-0.0006460492319465697
0.692507	1787824723881108224	0.00013475993532548105	3.128783032282219e-05	-2.2373875081060177e-05	-0.0011438702196626864	9.811712028262793	-0.002115277820541704
0.698318	1787824723887108096	-8.210501752619697e-05	0.00014526984746103452	5.437974604649597e-05	0.010599826744147469	9.808557030377218	0.0026755423558523376
0.704480	1787824723893108224	-3.5042352784949116e-05	9.03585076627859e-05	-7.967085286887267e-05	0.0018126170546242932	9.80864451119581	0.006511208333104949
0.707613	1787824723896108032	-0.00012090126048661732	9.868260447610939e-05	2.7496333209583287e-05	0.010185589082436091	9.81016542038727	0.002484210209636683
0.712130	1787824723899108096	1.2325444403888548e-05	-1.209522895044712e-05	-5.22576592769401e-06	0.006218674696859654	9.814329198652258	0.0031098295686953163
0.719376	1787824723908108288	0.00012913888842709973	0.00010860336500105911	9.060552304905622e-05	0.004360640858011265	9.814014668754613	0.0018130585145629701
0.724035	1787824723911108352	-3.0299084006893065e-05	-5.843730300971393e-05	0.0001394263340203373	0.008754145427943512	9.81198588384777	0.003970069471437634
0.726710	1787824723914108160	9.52970294123749e-05	-0.00011990002603748097	-3.9134770538730025e-05	0.004032357241299948	9.81013762073072	0.005964947231439835
0.733034	1787824723920108288	-0.00015178742604922088	8.26775533295861e-05	5.392954958528331e-05	0.0034943094304912634	9.810139701528001	0.0014029583616755777
0.737339	1787824723926108160	0.00010057632921555813	8.541128537467071e-05	4.994624580596935e-06	0.004550909201291228	9.814075175220143	0.0025978484801357764
0.742627	1787824723932108288	8.965629926164991e-05	0.00015793314857093785	-0.00024208425162131658	0.005053043756342897	9.810462717832173	0.00014117104299534063
0.744989	1787824723932108288	8.976559321242899e-05	-6.9429210902585315e-06	1.5686605562990064e-06	-0.0004856718875391212	9.809777058749292	-0.0008992034807679119
0.752864	1787824723941108224	1.5166582685010061e-05	3.7105426343606894e-05	-8.032432714349912e-05	0.00576594577010168	9.814082756776566	0.0031026890659934412
0.757404	1787824723944108288	3.690456103689854e-05	9.262772571937478e-05	3.3731843559184276e-05	0.0043502569220615454	9.812440100064585	0.003399442009915327
0.760589	1787824723950108416	0.00013022099367387917	3.887987145979682e-05	0.0001767869078995003	0.005451010279902661	9.811516795136598	0.0015539088071042095
0.767420	1787824723956108032	7.705625162404701e-06	-1.6715270182274853e-05	5.791852470524632e-05	0.004938635664996782	9.817855988895827	0.001406792854956686
0.771119	1787824723959108096	7.34741191909183e-05	-6.416696314846868e-05	7.640190972587176e-05	0.006230836428394702	9.812464685314602	0.0005173821588811056
0.776520	1787824723965108224	6.245344003683567e-05	3.388830262356137e-05	-1.336053623431585e-05	0.004410519895707304	9.815358426901398	0.0003830555372059865
0.782035	1787824723971108096	5.046051648068365e-05	3.2172510061280765e-05	-0.00012648509346232828	0.0032267571161429093	9.812709412208163	0.0018999431446195022
0.790705	1787824723980108288	0.00012084871343146677	-7.233156486675848e-05	-5.195945146839542e-05	0.00981547249497004	9.807901623484915	0.006402134643553193
0.794179	1787824723983108352	6.515891649826593e-05	0.00011124273349723428	0.00012560618426067665	0.005980928890622107	9.80964026416136	0.003003712372423643
0.795882	1787824723983108352	1.6587775245034877e-05	0.00024862176932036195	-6.723686203699106e-06	0.004451177945694966	9.816836296604421	0.005259649839031727
0.804342	1787824723992108032	-7.138525830475453e-05	5.034066199884963e-06	5.5235217448916114e-05	0.009327437782871378	9.818871237714028	-0.00027800561556172573
0.807017	1787824723995108096	0.00011032695350218603	-2.100710175466263e-05	-1.866343032063159e-05	0.00345332007995249	9.813039844649737	0.009765327983022355
0.814527	1787824724004108288	0.0001973610404279287	-5.524716417576486e-05	4.8447790917039075e-05	0.0031599356089988813	9.815640417784431	0.006716790497822105
0.818605	1787824724007108096	5.794024844643644e-05	1.7704377659865645e-05	-0.00012740999657422645	0.002692163026649198	9.80766984671234	0.006757068422932482
0.824477	1787824724013108224	0.0001653559084903635	0.00014023916932973313	5.743987967912725e-05	0.0023477568650826838	9.811300879284081	0.008644206407219
0.829031	1787824724016108288	8.013282202217034e-05	0.0002516095478663443	-7.265035597749868e-05	0.004779444223709933	9.819756857368443	-0.004264656707791883
0.831893	1787824724019108352	6.626192714033286e-05	0.0001700248572865612	-0.00024633857214936426	0.00653903783957364	9.812973110471102	0.00219102440930021
0.836679	1787824724025108224	7.995770565004834e-05	0.00019734793686740438	-6.427049553406176e-05	0.005383919751796853	9.811278811636381	0.0016737330291324082
0.842823	1787824724031108096	2.6196515753033086e-05	6.017272475230731e-05	-2.4689646781332926e-05	0.0028835541333290106	9.809773927957208	0.006216012827726033
0.847959	1787824724037108224	6.629055625486575e-05	5.7680766685536736e-05	6.0249141173879185e-05	0.004195969222271332	9.81399963257909	0.0017932354707874635
0.854339	1787824724043108352	-6.301099660692228e-05	-5.569590513785603e-05	-3.945235818920895e-05	0.007005797041608544	9.808847666036206	0.0025400744552689972
0.861215	1787824724049108224	9.279986953902979e-05	0.0001430050749313344	-3.325632740107359e-05	0.007823272454543985	9.811557181769217	-0.0006849220068350921
0.862930	1787824724052108288	-6.603383424107837e-05	-5.8404947464058366e-05	-1.0627131721354898e-05	0.009863612751488515	9.80348509817133	0.0011747468665250513
0.870584	1787824724058108160	0.00011284688215611324	-1.768764460159589e-05	-4.8010061997669086e-05	0.008747171943394756	9.817939206265677	0.005853971390985254
0.873406	1787824724061108224	9.585276148924189e-05	0.00010099942684775335	-6.185977469252036e-05	0.0021136708127988896	9.809043256508318	0.00564486658315231
0.878520	1787824724067108096	2.306868437489227e-05	0.00020933175713633422	8.418953254056913e-05	0.0007827691394310188	9.811346977081078	0.005916154315827591
0.881108	1787824724070108160	-0.00012884027661804902	2.2544029128836495e-05	0.00013500471350842184	0.005611273766464427	9.808958082249163	0.0013540808276530868
0.887745	1787824724076108288	-9.217281431681328e-05	1.1981064247904508e-05	0.00010916056966601745	0.0023696602836950497	9.810168287267592	0.003226855733910297
0.893584	1787824724082108160	0.0001050541007321277	9.69394314301738e-05	0.00015370569082282667	0.004961900434031663	9.807023495656106	2.9794077059292195e-05
0.897253	1787824724085108224	9.710691851566116e-05	-5.0636640353363936e-05	-9.634639578460419e-05	0.005020919952073536	9.806674216858223	0.0031857417022621223
0.901489	1787824724088108288	5.638585880585459e-05	0.0003316478206868056	4.839373458149666e-05	0.0038710876126350643	9.812456430101278	0.0015920912843837842
0.907605	1787824724097108224	8.930270244756074e-05	0.00011453307133310519	-0.00017228474801652552	0.00886983165595033	9.809182832357001	0.0040125544908672225
0.914278	1787824724103108096	-3.1123513995029935e-05	0.00025656885714125466	-1.5614946887511528e-05	0.00327350138798944	9.812427909491849	0.007120463266489003
0.918954	1787824724106108160	3.4234799540746704e-05	8.816691441019667e-05	1.1145035027630552e-05	0.0032269791600874286	9.812648388872459	0.004666129467661613
0.921579	1787824724109108224	0.00012187912386114876	4.4816846823460156e-05	-3.7526825845074007e-06	0.007013604828141433	9.80721521560906	0.0035972459886115366
0.928969	1787824724118108160	2.1298300593439468e-05	9.61435413074023e-05	-0.00013565853144961664	-0.0005373282934607957	9.81526473668303	0.0024762487042918717
0.932272	1787824724121108224	0.00019763516657264033	4.3382686913720795e-05	0.00012375458345323642	0.007918874520825268	9.811638868441385	0.01065207163176504
0.936894	1787824724124108288	5.0769964359683486e-05	0.00011624639254311016	-1.8764181316105242e-05	0.0075179243060244875	9.814142729475734	0.004261831699776979
0.944655	1787824724133108224	-7.303680843838306e-05	-1.133514712662852e-05	-4.988316167853984e-05	0.004834197305741345	9.811970842058392	-0.00047800058111463787
0.948268	1787824724136108288	-1.61890080646789e-05	-2.2197259882529557e-05	-4.784461475006376e-05	0.008979766676626918	9.812072770189202	-0.0002584474979560043
0.952789	1787824724142108160	-6.603723682762623e-05	7.788239206511743e-06	-0.00011326770303632489	0.004321073784024219	9.812477991144267	0.001828637927698609
0.957489	1787824724145108224	-4.309243520362237e-05	2.023963656093153e-05	5.928907519878396e-05	0.002968054585592881	9.81402257589711	-0.0001187146459368394
0.957989	1787824724145108224	0.00016862152984517315	9.570371371225422e-05	4.572852608046044e-05	-0.0007130578513471772	9.810577064564995	0.003976321333630383
0.968935	1787824724157108224	-9.727430727386826e-06	5.496428366468977e-05	-0.00011843969915881986	0.0027062467339894016	9.813263974672314	0.006656688457950468
0.974754	1787824724163108096	9.52396960411227e-05	0.00017274244474481593	3.543706057749213e-05	0.010355428560004567	9.810570110728854	0.002116918061463733
0.975254	1787824724163108096	3.317295136436479e-05	-0.00010021654627832924	-7.64437876065112e-05	0.00489971109510562	9.811505914765103	0.007554985690583315
0.978561	1787824724166108160	4.632819112271583e-05	2.100658538789153e-05	-0.00014525790388315792	0.0034715469872226954	9.810166837367637	0.005996376029043848
0.986769	1787824724175108096	0.00010525190045997594	0.0001272379106085442	0.000127166395976178	0.006266856317888939	9.80773619421344	0.009789735660106937
0.994091	1787824724181108224	-5.155878058110081e-07	0.00020033239366560476	3.373201397224636e-05	0.0056593808439133475	9.815476188026143	0.004377465671899253
0.998084	1787824724187108352	-5.643659157783663e-05	6.38063961668965e-05	-3.712286207954833e-05	0.0006167963252889435	9.815925271262424	0.0005278038392462262
1.003361	1787824724190108416	6.257725398382889e-05	-9.071976934283637e-05	-0.0001593418869200277	0.001935430873800542	9.80690011512155	-0.0006667963624655323
1.006280	1787824724193108224	9.688814296632712e-05	0.00014607976824789875	-1.9288661931924175e-05	0.0008188644609025547	9.80945218922665	0.005482302931270138
1.010975	1787824724199108096	0.00014873773843092415	9.214522516800709e-05	-0.0001820603622197362	0.009278907885220592	9.813397805536441	0.0017617868364563543
1.018097	1787824724205108224	-2.755201316202309e-05	0.0001384089084524894	5.827373499966489e-05	0.008254838914468043	9.810598110756281	0.0018503846559691003
1.020501	1787824724208108288	5.620249731570271e-05	-4.414819994663831e-05	-0.00015217055057603748	0.006644109905755808	9.812290742056673	0.01025289211538138
1.029383	1787824724217108224	1.2001115338989914e-05	8.812815005125897e-05	2.504733479782379e-07	0.0051115002158539525	9.812190546489267	0.0028038647244549627
1.033571	1787824724223108352	0.00010791319087203341	0.00020482266832615696	-0.00013349986702472798	0.0038552605049432245	9.81374017475949	0.0017368448669998772
1.037315	1787824724226108416	0.0002348590384071406	-2.808440218831598e-05	-5.920734493066188e-05	0.008904041361567746	9.80883670163707	-0.0009715332380572064
1.041309	1787824724229107968	0.00021329690776927514	0.0001260287868863131	3.330360125756795e-05	0.005992320937223814	9.811437451594454	0.0018159772753102747
1.049931	1787824724238108160	7.893191857681977e-05	0.00012306567747100944	3.466618450362776e-05	0.006226790642282283	9.815438600045157	-0.009195474726988954
1.052395	1787824724241108224	3.783589735243631e-05	0.0002877716903898157	-3.1223072528157534e-05	-0.0015632824825802588	9.805262157699742	-0.00017851259229550043
1.054749	1787824724244108288	1.0671719312382072e-05	0.00017880102043346191	-0.00010186539665941598	0.0024676702350389067	9.816860637939072	0.006831482229611896
1.061117	1787824724250108160	0.00014341493103855725	0.00013927216281388582	7.360538803995406e-05	0.007145330915592398	9.809660702171783	0.0034610018793252645
1.064471	1787824724253108224	8.581702452035067e-05	6.68737991185235e-05	5.146447979897084e-05	0.00858954365848147	9.80840751614493	0.0008166283910414551
1.073694	1787824724262108160	0.000178981753297307	8.595972316106289e-05	5.410140927944386e-05	0.0051813334359786046	9.81191066681888	0.0005149155045058298
1.075741	1787824724265108224	-8.728342824107961e-05	0.00016297702443124923	-1.4525520041682234e-05	-0.0008992363716169979	9.815403687153541	0.005892862638173117
1.082367	1787824724271108096	-6.21359847796909e-05	6.426616408701496e-05	0.00011215753701033498	0.013696767727542986	9.806915993366783	-0.001190568235159346
1.088119	1787824724277108224	-2.783676938665944e-05	3.4944886002915325e-05	2.876252673730548e-05	0.011436497293806257	9.80596932196511	0.002844066563920688
1.094390	1787824724283108352	0.00013757916935436992	-1.4763531479532172e-05	4.480414857903658e-05	0.004284997789270472	9.810166989157171	0.0015394547117007795
1.095216	1787824724283108352	-8.258149518402544e-05	-2.5030741305814418e-05	-5.0022262318905147e-05	0.007448443233655365	9.81740310768287	0.0056192969913773224
1.103414	1787824724292108288	-0.00016140542674878354	0.00015801556685027734	-0.00017141574428336737	1.7686470250065714e-05	9.815312876600101	0.006285312293433567
1.106758	1787824724295108352	4.217295865220813e-05	0.00018596781342188846	-0.00020202573239139367	0.005888141173612143	9.808058701969273	0.0008135449657124478
1.112249	1787824724301108224	3.830312160944827e-05	-1.6671234184295433e-05	-0.00017851413460308322	0.007590142267872813	9.808707755051529	0.004896164911600851
1.114045	1787824724301108224	-3.03070933304869e-05	0.00021678769994722366	5.976965082297139e-05	0.006314431938618903	9.81246170290005	0.003875036517347671
1.122588	1787824724310108160	2.9678657701037027e-05	8.151308933652864e-05	6.580868287136405e-05	0.005375718863715598	9.81033444210043	0.00814317010992727
1.127816	1787824724316108288	-9.720137511093608e-05	4.57130335258318e-06	-0.0001570191268192334	0.0026273300416132564	9.8124959007228	0.0010242463430762633
1.132984	1787824724322108160	-6.338370789995288e-05	0.00013095669095954763	4.520799202302562e-05	0.0021924711731262903	9.808033381005478	-0.0026440844532870087
1.138436	1787824724325108224	2.4485143990036894e-05	-4.23135514397214e-06	5.327940508166471e-05	0.0037812010435972696	9.809427310455735	0.0014315031895971789
1.141315	1787824724328108288	8.21044687047383e-05	-0.00020248057102816632	0.0001943351925041051	0.010989398983318783	9.809994457252836	0.0029812581964913346
1.144981	1787824724334108160	0.00020962115837375438	0.00018561562199138988	-9.424069896572114e-05	0.004824824664218261	9.810253005834898	0.001042508833370408
1.153460	1787824724340108032	3.490606609431271e-05	5.29406752143839e-05	0.0001687241990209103	0.005079755377466095	9.808639228920908	0.0053796023333105205
1.155418	1787824724343108096	6.144917094376122e-05	4.582081988983958e-05	8.658280210996398e-06	0.004780341891116188	9.808953373693694	0.00434674562442272
1.166480	1787824724355108352	-9.364871393832359e-05	5.329782308712506e-05	-0.0001222945455544299	0.002492184324162727	9.803188117956035	0.0019833173287041447
1.166980	1787824724355108352	-1.9629878445303197e-05	0.00015109146538711628	-9.299887710477278e-05	0.011325880063957464	9.809975490260566	0.004041120509329692
1.169359	1787824724358108160	0.00010163306482196475	-0.00015991144697193632	-0.00018318531050092265	0.006216053304676836	9.81531479533402	0.005903221268064975
1.178758	1787824724367108096	-2.534912056705885e-05	0.00014175081936123544	-1.1905326630820846e-05	-0.0008035294438228794	9.809839887416407	0.0024544158312557705
1.182282	1787824724370108160	-6.785680717216146e-05	-4.730031071971811e-05	-6.085240513537316e-06	0.007137963814691742	9.812256122910545	0.0015822841253714135
1.186397	1787824724373108224	-0.00011955065642842918	-1.3584552961625867e-05	-7.260270648883963e-05	0.0033044700045278255	9.808641039955399	0.0015013915395245946
1.191711	1787824724379108096	7.393829827983931e-05	-1.1000827366258373e-05	-8.345216983016202e-05	0.006948977850002395	9.813606397292125	0.0026754363210211105
1.197032	1787824724385108224	-3.95304453394948e-06	0.0001410179068153008	0.00015507925289741473	0.00800698219274101	9.81103558524572	0.0045773809182217805
1.200280	1787824724388108288	-8.844929450078734e-05	0.00011908481080534435	-6.233172093690623e-05	0.0031130509810166126	9.808119299340476	0.0028644809354331307
1.209117	1787824724397108224	0.00018054897513718638	0.0001844214489315357	8.873884596545589e-05	0.002222109375597068	9.814367693195152	0.004528429125420628
1.214357	1787824724403108096	3.183559372452104e-05	0.0001334787210978901	-6.288697914390225e-05	0.005547752293912978	9.81299600420568	0.0016247396476093484
1.217616	1787824724406108160	0.00013105203643224453	0.0001365494400025624	-8.127280247945001e-05	0.004285318179563134	9.812773354011915	-0.0037659939209930614
1.221375	1787824724409108224	0.0001554519784606862	-2.9314882657965175e-06	-0.0001029789796998078	0.0032232754830058305	9.811970475654428	0.0006346164783888083
1.227981	1787824724415108096	0.00023826124170997113	0.00014444577057370146	0.00015031779196311238	0.004371363234892474	9.811368495617325	0.0011495299589911277
1.234177	1787824724421108224	-2.6151932529168184e-05	-0.0001347268783352726	-0.00012413352594888296	0.003736721552159457	9.813496746260652	0.0034069714576203374
1.238222	1787824724427108352	-1.3039874015688852e-05	-0.0001344990205050718	5.576961623156191e-06	0.003363741952822934	9.80997016482236	0.00388858348757862
1.242160	1787824724430108416	-0.00011977784895914361	0.00014808306908965782	-2.7493232753314417e-05	0.008376729542638605	9.81508619863552	0.00479596021488493
1.248088	1787824724436108032	2.4717998813873482e-05	4.611452755003039e-05	-4.463815558402758e-05	0.00804827005961449	9.813142477469986	0.008448742868431771
1.250658	1787824724439108096	-5.095722201754215e-05	-2.3318976103354743e-05	2.694951155945623e-05	0.004777813953770614	9.808293227339394	0.0033454170186098804
1.258813	1787824724448108288	-8.665412412105389e-05	9.792923225806975e-05	2.6832990248267157e-05	0.005541455564357207	9.813106065539534	0.003368693164535348
1.264809	1787824724454108160	1.1551481689415248e-05	6.576593424326369e-05	-8.899384517891067e-05	0.0024086194134468808	9.8126328283744	0.006769860116224843
1.268762	1787824724457108224	0.00014369173263621452	9.840896460519314e-05	-0.0002204715959154026	0.002585501663926235	9.812283784932298	0.009751307372888315
1.273965	1787824724463108352	0.00015552410845755867	8.201048460435592e-05	5.292052446741579e-05	0.0038600236142828093	9.805963850851082	0.0073557818904267
1.278345	1787824724466108416	-3.833615579097274e-05	8.20690099211033e-05	3.96031787251697e-05	0.0023964169986847067	9.811588748944677	0.0075522949524550916
1.280520	1787824724469108224	-0.00013934095264948155	0.00030527235757638304	0.00014750173335827455	0.006448908488700701	9.809720368634286	-0.0011345830447308243
1.289701	1787824724478108160	8.881301026481209e-05	6.126826914600634e-05	-7.976506678333225e-05	0.0067189820522764974	9.813200179774796	0.0053287780337021445
1.294417	1787824724481108224	7.995388607468244e-05	-5.956531414268438e-05	-2.736832163423727e-05	0.003578032959523812	9.80825431315463	0.0018144970666468558
1.295971	1787824724484108288	9.494215728982717e-05	-1.8369156106841307e-05	-8.267098449953727e-05	0.00353661545566548	9.81686500794687	0.005965246162046483
1.302136	1787824724490108160	0.0001729641394701203	-5.7451136078730094e-05	-5.9118601695017946e-05	0.005767207717478806	9.812672104374327	0.009247666812107792
1.308778	1787824724496108288	-1.3718504282248073e-05	5.356610716790106e-05	-1.9519749421386358e-05	0.0024056804136706835	9.812855622570163	0.0012757830949825682
1.313311	1787824724502108160	5.158870884764032e-05	8.009495288981917e-05	2.040543631585178e-05	0.009760195274043464	9.81214201384395	0.002159007955021554
1.315903	1787824724505108224	0.0001235223981668733	0.00016506570636416138	-2.1599012603713213e-05	0.004896447751506327	9.811895960602822	-0.0016225036605365564
1.320911	1787824724508108032	-8.165396942829102e-05	0.0002806404403503086	-5.484032719579252e-05	0.010909395027548353	9.813874295611411	0.00017705449945606662
1.325693	1787824724514108160	0.00014534024938324673	0.00012247241708199252	-5.8243062078814865e-05	0.005154830813589091	9.816666397254656	0.0033349832232825102
1.333029	1787824724520108288	4.561777251472067e-05	0.0001348623530555146	-1.2901620868506483e-05	0.0050364372140040145	9.806888574134279	0.005346374880589858
1.338880	1787824724526108160	6.131796131497215e-05	0.0001675178116845475	-5.6743411935438135e-05	0.005665595974859275	9.8073653271137	0.000558100784925109
1.343793	1787824724532108288	6.49302995107878e-05	0.00015291441610067104	0.00012546276874707683	0.005353269438389849	9.809559206889293	0.0005892095910849846
1.347119	1787824724535108096	-0.00011808800094668071	-1.8656250039021876e-05	-7.984326064616531e-05	0.0036717063054367144	9.814108201291889	0.00020252062228081876
1.353004	1787824724541108224	9.813875155064286e-05	4.067420072751718e-05	3.665830349583454e-05	0.0060847836174581825	9.8085235633982	0.0005848106928834722
1.356791	1787824724544108032	-5.942557861512846e-05	-6.923437575981131e-05	9.689882144181417e-05	0.0011634814871235035	9.809139757799606	0.0022937142138607213
1.364265	1787824724553108224	-7.531454419698509e-05	0.00019106261279500314	-0.00013339381289622135	0.006687403705983308	9.80639299317257	-0.003092254924973075
1.367657	1787824724556108288	2.812848523150912e-05	5.179328775753979e-05	-8.447055039105035e-05	0.005122212565952321	9.816191149801782	0.00035039825133594774
1.372083	1787824724559108352	-9.853893180876689e-05	-7.038461108959629e-05	-7.651985235747618e-05	0.005218734020076475	9.810557459746654	0.0016124701564861513
1.379475	1787824724568108288	7.850868822070626e-05	6.563459681596111e-05	-7.812019442295125e-05	0.010580225428614067	9.813014014743425	0.0031865211290192197
1.382553	1787824724571108096	7.325190375589933e-05	-0.00013734062350166567	-0.0002739043314312353	0.007156034715694981	9.80871694391796	0.0023768106356852727
1.387081	1787824724574108160	0.00021732718217383669	-8.569156619551719e-05	-1.716974228005796e-05	0.007340271888535029	9.813490610733046	0.009120042715574551
1.391049	1787824724580108288	8.740156490462769e-05	-0.0001328982737810378	6.894240143551615e-05	0.004680619551794604	9.80465042479983	-0.0012330233455895606
1.397506	1787824724586108160	8.482769797395968e-05	-1.5753102328229077e-05	7.074830945077266e-05	0.0020122097781646526	9.807894181360728	-0.00017654570008989682
1.404902	1787824724592108288	5.533611848004671e-05	0.00015611868232615276	-3.998604580498267e-05	0.010640585340924725	9.813150722282723	2.970457914464736e-05
1.405888	1787824724595108352	0.0002559961130985142	0.00010355162157290523	-4.325355893828887e-05	0.005564907384812557	9.815468911204526	0.007026609974852454
1.414347	1787824724601108224	6.786779220916779e-05	0.0001801959351193883	-7.336710406888477e-05	0.010457331131377704	9.814497126925735	0.0034791300467998886
1.415864	1787824724604108032	-7.713193645357768e-05	0.00015647621344656572	0.00013312892308514057	0.005767274456303896	9.816014156202439	-0.00012106264591333488
1.421308	1787824724610108160	0.0001540280089737231	0.00014443674864943426	3.972207030438997e-05	-0.0007624572922579152	9.8124013024458	0.0021865970620778513
1.429210	1787824724616108288	4.891894624361411e-05	-6.453005654109381e-05	9.395285296122049e-05	-0.001635030256475595	9.81319543110332	0.002106501690909289
1.431118	1787824724619108096	-7.365147863378944e-05	6.894000093794234e-06	-0.00015467600590124127	-0.002065126458893239	9.807727760936737	0.003634165357606922
1.437107	1787824724625108224	6.998146857425884e-05	-4.613188679503563e-05	-2.297967142062305e-05	0.0053380585970284914	9.812665644156242	0.0007726867070627225
1.441961	1787824724631108352	9.32597212046529e-05	7.3630972568551e-06	-0.00016187670449901612	0.0064378489206866184	9.816253424050382	0.006003321221832204
1.449602	1787824724637107968	5.2905976713491114e-05	0.0001863266835871868	-2.345347101806247e-05	0.007504496596482928	9.814639622615937	0.004149988611570209
1.453388	1787824724640108032	5.9406009778152755e-05	5.9707092388626266e-05	-1.1740024339825046e-05	0.00027564444324300677	9.810054548577911	0.004022193756169029
1.456823	1787824724646108160	0.0001049483464826893	-2.2162979804083126e-05	0.00011266964238216458	0.0002543676977228215	9.81489890332621	0.004130642435945566
1.461957	1787824724649108224	-5.939657564853703e-05	0.00026751951196828	0.00012689248829045183	0.0017956541217753158	9.811549913001132	0.0023516903405086487
1.468193	1787824724655108096	-5.6119635800825856e-05	5.75907470736484e-05	5.56470467268181e-05	0.0058174906604576086	9.81303736526355	0.0008266703066401458
1.471515	1787824724661108224	-3.451439172359807e-05	1.2913449138356982e-05	0.00022331936953873653	0.010321344092904024	9.811634189464236	0.00045474669457735246
1.478615	1787824724667108352	0.00010272586672577096	-3.529829091603014e-05	8.21766946598014e-05	0.006356643636466015	9.809975026204306	0.008661792562547675
1.484296	1787824724673108224	6.370586700075523e-05	-6.868310114288666e-05	2.256902626327272e-06	-0.0025804045993213284	9.814550585678395	0.0055787820418479244
1.488698	1787824724676108032	9.90297671149863e-05	8.380030400496475e-05	4.221885146718054e-05	0.01000108042564265	9.808138815178708	-0.0008074771472170164
1.490988	1787824724679108096	5.62361128317847e-05	-2.6532025199322388e-05	2.2975574770657443e-05	0.005467281867725495	9.809771378462667	0.001799911310175165
1.499761	1787824724688108288	0.00016083643606847482	-8.723641310118575e-05	-6.209138328478209e-05	0.0028970593856236936	9.812256542078487	0.0014609865757324225
1.502611	1787824724691108352	7.562461268063921e-05	0.0001666259269430425	-9.709326550949846e-05	0.006902295495081352	9.809802102121887	0.006940154347049901
1.509939	1787824724697108224	1.2593892649928123e-05	0.0001146368840277979	-0.00020050771693885664	0.007377622818975475	9.810379672931555	0.003089462246172341
1.513406	1787824724700108288	7.783040016665302e-05	0.0001724010346745488	6.532570090065491e-06	0.007610439055349491	9.810863723460368	0.00042079835222762554
1.517384	1787824724706108160	0.00014849953524115106	-5.43761425832396e-05	3.921955833111482e-05	0.011175795860269204	9.810847535802413	0.0008571605134878768
1.519756	1787824724709108224	8.858777204379722e-05	1.5008460595708075e-06	-0.00017720602501211414	0.00272872317939135	9.811359069417625	0.0011413359388033305
1.530412	1787824724718108160	-7.51925496661048e-05	0.00011947663008744924	-0.00015046654114782572	0.007219827767473631	9.811769095579827	0.003409711890820632
1.531400	1787824724718108160	-0.0001228364528536633	-0.00012007066737779077	8.24767670559943e-05	0.0029926049598405042	9.810183027264111	0.005232220127901286
1.538264	1787824724727108352	0.0001979789757179843	0.00010971771831056761	7.327939149173625e-05	0.0058606883960171646	9.810251535029238	-0.00046449437749335057
1.544107	1787824724733108224	4.013821338604019e-06	6.144149232612759e-05	0.00011203095637370093	0.002346595859436267	9.808504954030546	0.0006495599416777315
1.549817	1787824724739108352	0.00017772787536601245	2.416667111753323e-05	-4.769628729193339e-05	0.005466682595659422	9.810578722558205	0.004253646247678466
1.551084	1787824724739108352	-6.730406434691556e-05	0.00025879627684805706	-4.56033932973321e-06	0.005648163756522476	9.814077244519595	0.0032539015296983442
1.560241	1787824724748108032	0.00012953755183792815	8.02493877142968e-05	-3.261151500970463e-05	0.004875597765042096	9.81459440585541	0.001277150469099611
1.561618	1787824724751108096	0.00016879640331163672	0.0002049052858201546	-0.00013998979692374691	0.008605335011871213	9.812402701227144	0.0023034507266844785
1.567163	1787824724754108160	-7.24089649932904e-05	0.00018271699586518256	-4.1312483317579555e-05	0.00881906178986706	9.81165625181398	-0.0005314801585331141
1.575719	1787824724763108352	4.8852456408259655e-05	0.00010208976680029982	8.043443383551169e-05	0.00512720881693209	9.814422569817172	0.00862236062759189
1.577353	1787824724766108160	3.657412681695091e-05	0.00026240541267569825	-1.0916008689030234e-05	0.005946774417442948	9.808087083011184	0.0026833267856215997
1.582484	1787824724769108224	-0.0001332648966246045	4.7685712129277925e-05	-1.7174105362851434e-05	0.003959322622423718	9.815299312982214	0.002767400791008238
1.585466	1787824724772108288	0.00014735294501843927	6.050535445236584e-05	1.910890708820949e-05	0.00850063716606481	9.813781706254058	0.006498548320301336
1.592587	1787824724781108224	-1.7498528101055678e-05	-6.898420644176057e-05	8.862081713584959e-06	0.00658556541514227	9.808805067727802	0.004443586834819176
1.593857	1787824724781108224	0.0001892172583604842	-6.742039685848165e-06	5.657781115253235e-05	0.004374769589898224	9.811637845767045	0.0014318837914446443
1.602863	1787824724790108160	-0.0001538505024406842	7.967420803844282e-05	-0.00019369914198161852	0.007017586976507742	9.812786947378449	0.004597083565843738
1.608554	1787824724796108288	0.0001425820007355043	0.00010326784180781306	0.00011499972512380222	0.00392075170685641	9.812270556688123	0.00587391201475407
1.612621	1787824724802108160	9.414105757031755e-05	-0.00010378141404170999	6.969480292790282e-05	0.005620529231963574	9.813337332798275	0.0016292549058761231
1.615945	1787824724805108224	-1.280246684584853e-05	0.0001029962622679386	2.794720097697811e-05	0.0069341424741408	9.812169685203727	0.005118754969074865
1.625330	1787824724814108160	3.639336201655462e-05	7.87024136091969e-05	9.582471234170199e-05	0.004758416782058348	9.812703980468779	0.006878178807865391
1.627234	1787824724814108160	-0.00018904165391309677	7.117654792909773e-05	-5.8822580503725656e-05	0.0047512155143341695	9.813127560208878	-0.000977539441351071
1.631623	1787824724820108288	4.9075465774128305e-05	-0.00011501548393955279	1.0213986451736277e-05	0.007175720140365034	9.812123350627033	-0.0009565056486429352
1.637381	1787824724826108160	6.324451605723847e-05	-3.718472298868821e-05	-0.0001506668996339174	0.0021031369638432715	9.814877214719623	0.0005596956999019565
1.640948	1787824724829108224	9.612146319246391e-05	9.14718574017377e-05	6.841494370237772e-05	0.006196018765948143	9.815187017068364	0.0060995135836400425
1.646184	1787824724835108352	0.00014231657325778773	0.0001480586274094119	5.7814478411724366e-05	0.00932340538012224	9.811110901730016	0.003744328157403065
1.650219	1787824724838108416	0.00018858673280453426	0.00016061633904003217	-8.94635749875282e-05	0.004517113454304195	9.81323552445209	0.002172063689734196
1.656241	1787824724844108032	7.436526675993127e-05	0.00016489337777640602	5.291955569852165e-05	0.005284419226248083	9.816403492927119	0.0023743728031801956
1.659363	1787824724847108096	0.00011146488261652803	0.0001805166320006464	8.919881656031922e-05	0.0027874046777942286	9.814285613316459	0.005742986026544241
1.667947	1787824724856108288	3.115532684984502e-05	3.2425929957455554e-05	-0.00015371877270922566	0.004846032437231199	9.810790227522219	0.003626290816959703
1.671767	1787824724859108096	2.2284281472742628e-05	0.00015266189451806737	0.00018345427877943494	0.00340800168621695	9.810701854459396	0.005847121577524774
1.677000	1787824724865108224	2.322866018219182e-05	-4.928901689373298e-06	-5.7922613513332035e-05	0.0001483004246758523	9.809265292457052	0.003276196323203509
1.682893	1787824724871108352	4.008814898412927e-05	-3.9032742268574576e-05	2.9868197259485953e-05	0.005567609736359373	9.814459341199878	0.009238773736428646
1.686677	1787824724874108416	8.093902995614337e-05	0.0001708109627389274	-8.877149257237581e-07	0.00016378860449699564	9.809607667803645	0.007304227901095294
1.695345	1787824724883108096	4.3952173606527403e-05	-1.902232787122594e-05	5.0540638750856096e-05	0.0051442798891663775	9.810602969214164	0.0023441066631551314
1.695845	1787824724883108096	1.6131332520281775e-05	4.076775458094366e-05	4.0574391049924336e-05	0.004711454127059173	9.812861573214159	3.873543851231178e-05
1.702838	1787824724892108288	8.519242601063014e-05	3.4945964333750445e-05	-2.2876711001023647e-05	0.002505510500341524	9.816618290311046	0.003244403882587526
1.708447	1787824724895108096	-1.262667647591356e-06	0.00014591775457207037	-6.253846665702646e-05	0.006939350927545898	9.810726209498258	0.001998203850285637
1.712011	1787824724901108224	-6.802519638949859e-05	-6.733430345651392e-06	-0.00019392529816154185	-0.0006907712753032921	9.808563958978871	0.002949659152052815
1.715917	1787824724904108288	5.288484477112278e-06	0.00015277292599066232	-9.877322019857455e-05	0.002807709790744205	9.814021165377564	0.002341519607297859
1.720734	1787824724910108160	0.00021965183910803426	-0.00010137449152291007	8.190322613234269e-05	0.002476713930828656	9.810298987650995	0.0010811867651559345
1.729272	1787824724916108032	0.00021063690843014875	0.0002982691152622371	0.0001302519802187803	0.0012891147261167154	9.80887478796376	0.002142573332325517
1.732094	1787824724919108096	-7.068329639536687e-05	0.00014809127347714118	0.00013325331710804003	0.0028178057641217295	9.812471293257383	0.0027769793118042744
1.738182	1787824724925108224	-4.1395723205352164e-05	9.096107155673769e-05	7.082701473542031e-05	0.005019775982095469	9.81361720403094	0.0026567685316851116
1.739584	1787824724928108288	-0.00023389988909879267	8.163351044585782e-05	2.1628323248368465e-05	0.006078387850562713	9.809980863514019	-0.0026991155403151648
1.746530	1787824724934108160	5.7967813648173436e-05	0.00015496461432867506	-0.00014586252721378255	0.002655952326894303	9.81746896459652	0.0008023071598284924
1.753188	1787824724940108288	0.0002790981840821872	-1.890553922144176e-05	-0.00011324771501981474	0.009289032971627628	9.80966485305105	0.004860854192066812
1.757323	1787824724946108160	0.00013144891372133513	6.906568757044184e-05	5.7078595333386604e-05	0.008241943104361403	9.809432925004874	0.004116466202940755
1.762467	1787824724949108224	-5.521964371218329e-06	-1.4328614551298924e-05	-5.351338469591406e-05	0.001598929996733802	9.812339041864368	-0.0035995783308722
1.766173	1787824724955108096	3.4878179570446444e-05	6.779122258828937e-05	0.00012742277939890945	0.0027852822491176853	9.810391927427114	0.0015976175464763698
1.773967	1787824724961108224	-1.8911735441158042e-06	0.00017365958504382946	3.186046962772827e-05	0.0013593292965134564	9.81735425133977	0.005361794204691588
1.777230	1787824724964108288	6.534192906695227e-05	3.0302375019250617e-05	7.157666287348482e-07	0.006343196064215393	9.8051252582662	0.003909145682109212
1.783575	1787824724973108224	5.4519864494360176e-05	0.00013930394494725653	-6.666218932132779e-05	0.008617288747547556	9.812799661684343	0.004027973771217375
1.788308	1787824724976108288	0.00013383608401279723	6.435278722818726e-05	5.9111093179251936e-05	0.0014969716618927478	9.813210913429161	0.004037772540284683
1.791572	1787824724979108096	1.2492956917885942e-05	-5.329527753523689e-05	-7.019940963091633e-05	0.008511360640343113	9.809730394001967	0.0025110759176857345
1.797410	1787824724985108224	-4.267254967810654e-05	4.9698256890667115e-05	4.084936570142338e-05	0.009959928461339916	9.813497292106572	-0.00034509977225937686
1.802667	1787824724991108096	0.00010635386081657606	9.876526998902661e-05	9.304000228728626e-05	0.007809558907246883	9.813147908079928	0.0007449618915270667
1.806170	1787824724994108160	-6.7093920870505165e-06	0.00024454409380522923	-4.294587510916724e-06	0.005132947251532452	9.812256980197441	0.00472678254010256
1.812446	1787824725000108288	-0.00015353981391841992	0.00019676707187368214	0.00011187170504787155	0.00937892384690444	9.808502445792444	0.0020710071612599643
1.816410	1787824725003108352	0.00012304980945939802	0.00012545368881163764	-2.7065697345234576e-05	0.005280073813526593	9.810179265978308	0.008175130093544283
1.820301	1787824725009108224	0.00020959254342982868	5.067662611092017e-05	-9.93703197109195e-05	0.0034651616573809652	9.806603896110762	-0.0032328987743005058
1.827622	1787824725015108096	0.00014808036132907756	3.816688871105052e-05	0.00013772746639390714	0.008965386151438536	9.81072076389201	0.010515522703116668
1.832834	1787824725021108224	-4.472512352740653e-05	3.862683464643419e-05	2.8358110501011568e-05	0.004246805087006149	9.810524329769061	0.007228478087391001
1.838694	1787824725027108096	0.0002031827941447519	4.389843067356908e-06	-2.9424581308279285e-05	0.006511540717758155	9.814964209453924	0.0026472726703553454
1.843302	1787824725030108160	2.8230094740528552e-05	0.0002695844404225791	-6.530713090937742e-05	0.0002843718332899972	9.813698258897968	0.0017850942285172172
1.846230	1787824725033108224	6.0570709028748024e-05	7.120653813745465e-05	-0.0001987109050358262	0.005518334333345708	9.805289024324251	0.0014459368414328115
1.851292	1787824725039108352	4.679919749815084e-05	8.329745123731708e-05	3.055270153632174e-05	0.006527892221695002	9.812852522699671	0.004459793125996445
1.859194	1787824725048108032	8.678459723910817e-05	0.00022291844752553153	0.00019799341570920774	0.0029395436886734947	9.807157876292948	0.0029402594976363893
1.861419	1787824725048108032	9.554292951153756e-05	-1.4167598469043035e-05	-7.793174464149725e-05	0.003273952446572249	9.808692975193765	2.4853082197057348e-05
1.864704	1787824725054108160	-3.260516174273035e-05	-3.969144652578189e-05	0.00011220751921211088	0.004029460287573367	9.820660366934122	0.0040215469691310905
1.869799	1787824725057108224	-0.00011759555129598583	4.135626746546573e-05	-7.65254196467248e-05	0.004616349896172559	9.813968953700657	0.0005882447387836145
1.876332	1787824725063108096	-3.8970215301933144e-05	-7.242163860261124e-06	-0.00010691291151036217	0.006924270110058385	9.806425070535887	-5.962295055120378e-05
1.885183	1787824725072108288	-0.00010024435249531755	0.0001773615605833075	-0.00011007858457068956	0.0036057875809126514	9.812245677218156	0.005858581381029836
1.885683	1787824725075108352	0.00012060774497062506	6.602219101753375e-05	-0.00010782524134732951	0.008201792835347693	9.809686922060301	0.004181750949930647
1.894520	1787824725084108032	-3.995463686816312e-05	-0.00011993314778503474	-1.2522686148110483e-05	0.003253564333207868	9.819539016661867	0.002783443922080472
1.896380	1787824725084108032	-1.8351449579741742e-05	-3.14805140084484e-05	-2.8329862415075923e-05	0.004950547241386073	9.811417880524973	0.005296882801706748
1.902004	1787824725090108160	9.881793656707861e-06	7.861125835761148e-05	0.00024951087875043314	0.00239386876075419	9.81470442856014	0.005361106426901045
1.906096	1787824725093108224	0.00014677527783699276	0.00010997592668260679	-2.2017654532935832e-05	0.0016112292017597708	9.811363258630918	0.007203125528105611
1.915162	1787824725102108160	-0.00011804293333990245	-2.9358814193998977e-05	2.786276671859146e-05	0.006244234157012028	9.814924599206593	0.0013345190173715794
1.919603	1787824725108108288	1.634491176199436e-07	0.0001301711435393663	2.421947014671389e-05	0.007264831216156325	9.808221211984174	0.00701344944328634
1.921330	1787824725108108288	2.7499861249662173e-05	8.691068440108515e-05	2.525386294223424e-05	0.005167223647055531	9.81797532985929	0.005158269185858515
1.928199	1787824725117108224	0.00017810251222122358	-0.00014453388223336806	-8.863628365046027e-06	0.010509203601208286	9.816150440306005	0.001513737442668115
1.930099	1787824725117108224	0.0002149712929365653	-3.0611827395159794e-05	-6.539013868444348e-05	0.004595391911392095	9.811024319192468	0.0017532656418196874
1.936737	1787824725126108160	1.7666295164717066e-05	-2.1922441152607064e-05	-5.146820778159842e-05	0.005291575760817505	9.811255893808955	0.001384119880547563
1.942855	1787824725132108288	-7.467551575854998e-05	5.890648934094315e-05	0.00015237705097699862	0.008861710009333317	9.809388588517578	8.47442981833698e-05
1.946852	1787824725135108352	0.0002592876955257288	-5.122808811790247e-05	7.520720881958234e-05	0.0037199621988914236	9.811114442471409	0.0020671996281210556
1.953253	1787824725141108224	0.00018263925707264302	3.1939825413344615e-06	-2.1578006813804443e-05	0.007678146862683597	9.813677047745587	0.006636876557036262
1.954011	1787824725141108224	-7.07489919315713e-05	8.81968516275437e-05	3.166965297445883e-05	-0.0003235146588011781	9.812516167420087	-0.0012101158834667267
1.966047	1787824725153108224	-0.00023524108461092815	0.0002223025986415669	8.623724741463848e-05	0.006893523697053056	9.812715908341083	0.0006148339212690406
1.967011	1787824725156108032	0.0002833010827686974	-0.00013828715851366025	-0.0001410418301255242	0.005073994954894638	9.811957139188094	-0.001973296203781908
1.969670	1787824725159108096	7.013129131368136e-05	3.071344057000335e-05	0.0001919748375560569	0.0048073029224611	9.81676629001561	0.0076818985907044866
1.976127	1787824725165108224	3.085229294714667e-05	-0.00012357115014714526	-9.023791891462134e-05	0.008934099281013656	9.811465504852583	0.003741906273216341
1.980046	1787824725168108288	0.0002491918699346612	7.307728693549985e-05	-0.00014805714128808867	0.005353900730451357	9.810557968128466	0.0005555648260407078
1.985926	1787824725174108160	-4.1095839478061364e-05	2.32521509551806e-05	0.00011887784516348296	0.00615750270133984	9.811312928053981	0.00470058345733272
1.993951	1787824725183108096	3.1139225348483446e-05	-5.635898219815805e-05	2.496682653723088e-06	0.008200781039087317	9.809017616875584	0.006804120164495598
1.997407	1787824725186108160	8.281871944966212e-06	1.1463702508327323e-05	0.00013754909446747233	0.0075124051791012145	9.812003804364235	0.0022924000946362693
2.004282	1787824725192108032	-3.152151032520333e-05	-4.7650611597869835e-05	-0.00013129483659674648	0.002924313626225926	9.811514339118132	0.00452389788936884
2.009251	1787824725198108160	4.700544360673103e-05	-3.134416674256176e-05	-0.00017582972653142369	0.003927300420791135	9.812080858768624	0.0008424663089846942
2.015507	1787824725204108288	-2.2752909882273213e-05	0.0001924780846745754	0.0002259962971204795	0.008677235484639913	9.808555108339222	0.0024461589912327703
2.016265	1787824725204108288	0.00010186024867565402	5.136298787001023e-05	-5.832345093621943e-05	-0.0008562341406499292	9.811037888013878	0.0060731233209710975
2.020907	1787824725210108160	-0.0001568692499713713	1.1075723195984006e-05	-1.988074115244653e-05	0.004020267067311573	9.809747400080155	0.0006508650897637399
2.027882	1787824725216108288	-3.43067524937657e-05	2.2816652584298672e-05	-0.00010479597140615952	0.007512174024633811	9.811479799249021	0.004063931518578329
2.034576	1787824725222108160	0.00017137465284669745	0.00014634264624190514	0.0001377482373717262	0.007691719652963032	9.811580630928006	0.0019598964837501077
2.039568	1787824725228108288	2.275588098101021e-05	8.67872491400928e-05	-4.0501626591953234e-05	0.005513124467844598	9.813522761126698	0.004802030317855885
2.042396	1787824725231108096	0.00011563418078472344	6.676464526810441e-05	-0.00012490434751448383	0.002966712356732167	9.81457811998958	0.005544830784380192
2.048258	1787824725237108224	-0.0001041152604299983	0.0004092020871166428	-0.0001455243657353184	0.0071769677094747335	9.809466866575379	0.007932841588915987
2.055283	1787824725243108352	-6.0592176401614106e-05	9.760105952516846e-05	5.063990381511961e-06	0.004287786918830034	9.81234853474608	0.009814347978476032
2.059568	1787824725249108224	-2.0472434402559236e-05	-6.1061830613575e-05	-0.0001411371627990849	0.007562136400741683	9.812220078125696	0.00021270078665616568
2.060203	1787824725249108224	-0.00010419105646130963	7.017503709143708e-05	-3.177013236236011e-06	0.004638749205591366	9.808988638303163	0.010904327031925572
2.068845	1787824725258108160	6.97374983526459e-05	0.00020429747504541402	-4.05326683631112e-05	0.0084142949400111	9.810255761182344	0.00247894974854074
2.074054	1787824725261108224	0.00015458788989063864	5.303777976369001e-05	-3.479834754635886e-05	0.004901870082803899	9.81222419677102	0.0010960404074936104
2.078234	1787824725267108096	6.748162861150214e-05	7.47384932298445e-05	-5.854939223842798e-05	0.005347574013264359	9.812212316378506	0.0007836883246092083
2.082433	1787824725270108160	8.631320499868458e-06	0.00012124316330308602	-9.151250202955347e-05	0.005439767882199663	9.81440399424406	0.0022669868011869795
2.084923	1787824725273108224	0.00022863743278777931	9.031221255772779e-07	-4.6607621904856425e-05	0.007812264445568022	9.81032940916655	0.001263078153680826
2.093131	1787824725282108416	0.00010241981545899812	-6.552284554986527e-05	-0.00019502260647655007	0.0030935531029417955	9.810392841080755	-0.0027679844943112957
2.099098	1787824725288108032	0.0001431336108929209	0.0001376424516272726	-8.164658828278076e-05	0.0074376538588157085	9.81449865891796	0.0012202056569552801
2.103776	1787824725291108096	5.4671746305874486e-05	9.634411054231202e-05	6.696218326650982e-05	0.005910048299681437	9.811193296215029	-0.0008107747150023496
2.104436	1787824725291108096	-8.027845344324689e-05	-0.0001513457196948934	-0.00018114432309909628	0.00766230785607306	9.814486762169029	-0.0019218640926974531
2.114157	1787824725303108096	7.713530977540587e-05	-6.178495776150749e-05	-3.005603523707738e-05	0.006398997236822143	9.809916605877124	-0.0012501233096572956
2.118613	1787824725306108160	0.00015579174050717577	8.345230955296972e-05	-2.9273288031440267e-05	0.0023416076348839604	9.806516323124779	0.0011187617078454411
2.124105	1787824725312108288	3.0732362298177966e-05	4.193932769718097e-05	1.6659739325272184e-05	0.0050509840711573705	9.814337709130784	0.006625887077271164
2.126167	1787824725315108352	0.0001620200914589206	-2.093398805193727e-05	-0.00012791683520328254	0.009034822049778608	9.809581269347674	0.0055299812544758005
2.132777	1787824725321108224	0.00020379178429126034	3.864381440105834e-05	6.640403830647535e-06	0.007945361542945697	9.815625950350807	0.004345141395356841
2.136270	1787824725324108032	0.0003014083643939624	-5.986930477451241e-05	-0.00015135658979596706	0.009967122270335603	9.81291809981323	0.004108104728193099
2.142249	1787824725330108160	8.528136704198257e-05	0.00018128715630888546	9.92043229344107e-05	0.0006238512247180843	9.809735199542008	0.0010580761288875953
2.147512	1787824725336108288	0.0001934498550453784	6.637921228982843e-05	6.400715589042531e-05	0.005122560206534976	9.808876058634146	0.0020744022762028166
2.153078	1787824725342108160	4.411195112265573e-06	5.405975868493926e-05	-8.522113215312135e-05	0.0033633656629908333	9.811880213361642	0.006285008902567592
2.155658	1787824725345108224	0.00011442301126147432	0.00011842573479566869	-9.726850360252603e-05	0.0044128528683682645	9.81571829889664	0.0028591470409468087
2.164001	1787824725351108352	2.6817017174400097e-05	0.00011962191054470734	-9.925851916671512e-05	0.002020658576796005	9.812019186535531	0.0109088854732003
2.170740	1787824725360108032	9.470037170622713e-05	0.00018826320562312027	3.089962065247839e-05	0.000618857344992417	9.808016777709925	0.005003524908187714
2.172594	1787824725360108032	7.107069020371847e-06	-8.96038042147354e-06	-0.0001019697245481942	0.005214045047331201	9.811496894998449	0.005643729568638069
2.177881	1787824725366108160	2.2487404236621942e-05	8.289567990427588e-05	-2.3289775864771433e-05	0.0031646263024049295	9.81423793680074	0.002584203263964526
2.182403	1787824725369108224	0.00010552225857979975	0.00021251094745798214	-0.00021259641528170237	0.002533636803313412	9.811563752519392	0.0033469988831092714
2.186896	1787824725375108352	3.841994843729614e-05	-4.130658267607131e-05	-0.00031323517207320094	0.009560925196955512	9.812332187672661	0.005582741704228284
2.192059	1787824725381108224	-2.781813813766843e-05	-3.0190151375219726e-05	4.444803650261737e-05	0.013485481134049349	9.811177432101573	0.006557040765388184
2.196817	1787824725384108288	-3.862946350547956e-05	0.0002026687813240691	-9.48943221682006e-05	0.0007439963162479794	9.810598515287605	0.004276283696065879
2.204925	1787824725393108224	-5.4059014074978317e-05	8.630734827372984e-05	0.00015773966349492895	0.00417765983618014	9.810876120183002	0.0014906102871448826
2.207848	1787824725396108032	0.00013824053533859749	-0.00018908056449839947	5.171136588229116e-05	0.001777661135235896	9.814065940844737	0.0014883989263512953
2.210833	1787824725399108096	-0.00010630751391401177	-5.694225832628995e-05	-7.265390561689766e-05	0.005201695878797446	9.81200247787979	0.0003221429013485931
2.216061	1787824725405108224	0.00013740775803182403	2.1125238647130383e-05	2.424157781522141e-05	0.010772123725671746	9.815780720452334	0.002975858184993548
2.221890	1787824725411108352	4.280037431130996e-06	9.352171764093936e-06	-3.0024199996301593e-05	0.005216528820851942	9.809632484306691	0.00013419109966801264
2.225195	1787824725414108160	0.00019068209361846288	0.0001583503851006865	0.00010077907155427556	0.007348065037005083	9.80722010254522	0.0015424203875414942
2.233206	1787824725420108288	-4.589976327940866e-05	-7.78895189036479e-06	9.851820556585798e-05	0.0011193239736772328	9.808794870415225	0.000616495876460039
2.238910	1787824725426108160	-3.6740007285123287e-06	8.366214238682373e-05	-2.0910358736985482e-05	0.006118793297483617	9.80928647839623	0.0043437337717321285
2.239982	1787824725429108224	2.419198121996275e-05	0.00028719307045819905	-8.966729603505994e-05	0.007315517672788031	9.812925827552935	0.0030391697302192544
2.245853	1787824725435108096	0.00028593938740044053	0.00010938491141789139	6.713630866988837e-05	0.005931387770698188	9.817462691257681	0.006792993344075151
2.251442	1787824725438108160	8.23741603459229e-06	0.00010788852324480447	-0.0003053397729921988	-0.0010018615121877182	9.8132573826919	-0.0006737863035266357
2.256125	1787824725444108288	-2.2833641807231096e-05	0.00022711983482746602	-3.009042638385855e-06	0.0031356030593377403	9.813122322634637	-0.0031287762840088913
2.263726	1787824725453108224	3.241970108234584e-05	5.2030167069001965e-05	0.00010267727337896949	0.0025477141830267187	9.812038959414886	0.00850099441493911
2.264879	1787824725453108224	-0.00010905417911307161	0.000190150289925622	-5.743267690833522e-05	0.008165245507953174	9.813056043295306	0.0055476207674674035
2.272501	1787824725462108160	-3.9849174520493466e-05	3.986816889410757e-05	2.7467800876942712e-05	0.002071246534701929	9.807557656995838	0.00508047031088279
2.278455	1787824725465108224	-0.0001785857156909524	3.055797349058347e-05	-8.632324791982838e-05	0.006042005574227257	9.812596782261517	0.006139251073227985
2.285539	1787824725474108160	2.714969433932894e-05	9.251458685133034e-05	2.9148797887882764e-05	0.004557386814118124	9.807600483053214	0.007732198335087738
2.287608	1787824725477108224	0.00013440539811171708	-1.3658693461457423e-05	4.543646756081742e-05	0.005144393429928828	9.814850623923709	0.003949749198804076
2.292969	1787824725480108288	-0.0002917321039094962	2.7782739201828457e-05	-3.5990703429448485e-05	0.0036742344877992265	9.811294740472308	0.007728451924018961
2.299415	1787824725486108416	-0.0001623923029321998	-3.8639994604503826e-07	-4.408051801288802e-05	0.005362298077171283	9.814274866999304	0.00830343076104124
2.300331	1787824725489108224	-7.179314513163316e-05	1.7706002576461115e-05	-0.000140381830470671	0.0056778322021195	9.810373406664494	-0.0011743290642601844
2.307146	1787824725495108096	4.60049467308753e-06	6.388228287688084e-05	-4.708460080558895e-05	0.00203492792206465	9.817042296862912	0.0021161135212564896
2.314531	1787824725504108288	-4.0348588657933325e-05	7.222682295290777e-05	-0.00010704983642574892	0.002323895163678802	9.816744755430413	0.004533991027743297
2.316671	1787824725504108288	3.211173634362773e-05	0.00011885183341315658	-0.00021954475588964318	8.563953686803547e-05	9.813770672215504	0.0013452156618064893
2.323248	1787824725510108160	4.409345932200274e-05	4.5657406721162175e-06	7.132033094492166e-07	0.006725579291588452	9.8104160917452	0.00703748550045739
2.328905	1787824725516108288	-0.00016354666305266918	-3.7329477702129685e-05	0.00015635355566539545	0.0018967507224777963	9.81526094709121	0.0006290021290054548
2.333083	1787824725522108416	2.8765881199489097e-05	0.0001439074412267409	-0.00010490186408373298	0.007252697608378775	9.809492692056786	0.0006327002414414818
2.338852	1787824725528108032	-8.381478054638342e-06	0.00016739353053447096	-0.00019145773139745686	0.0015495874792859033	9.811936798353567	-0.00023140091252023135
2.342368	1787824725531108096	0.00010261226415485755	5.276711219479918e-05	9.692429125644734e-05	0.006711431001452582	9.812198341736359	0.0021130246188813136
2.345325	1787824725534108160	3.734796505625462e-05	0.00018335523698920827	5.191409614042852e-05	0.00489896274195639	9.809460956042091	0.0058811050873116555
2.350429	1787824725537108224	0.00010756596283565901	-5.962477363772565e-05	0.0001260634587421144	0.006201824496765009	9.808736935783843	0.0009972195444387661
2.355341	1787824725543108352	-3.775934181546214e-05	0.00018964440155701823	-6.568198581885902e-06	0.005916894211158142	9.809669420517585	-0.002698485070117798
2.363642	1787824725552108288	4.38897841427119e-05	-5.234731053892022e-05	1.8123490397286827e-05	0.005461920687643315	9.81104688263631	0.0016162092718720442
2.367485	1787824725555108352	-0.00015226668079863158	8.747212939771382e-05	-7.47832928721831e-05	0.007230567670382153	9.809624768432222	0.0042402652414658525
2.371854	1787824725561108224	7.552020587286293e-05	-1.7163628984047726e-05	-7.306608805378672e-05	0.006079189062137106	9.81174750549724	0.004790606583199678
2.375437	1787824725564108032	2.1761751987278596e-05	-1.2998830521588032e-05	-2.423244677267951e-05	0.003724563986020413	9.810073012966347	0.005852307971034891
2.387086	1787824725576108288	0.00016374871249450623	3.677283041278482e-05	-0.00012167766807545068	0.007408482788462184	9.810982400277876	-0.0010703389749187804
2.388287	1787824725576108288	3.700043487014277e-05	-0.00010470863067519332	-2.9503425103162038e-05	-0.0020416192179055354	9.811118416967998	0.00238726663254005
2.390694	1787824725579108352	0.00012346473168184014	0.0001492187214125159	-0.0001541707448127643	0.003662009893624776	9.81005072548753	0.004740207986084766
2.398829	1787824725588108288	-5.958933852951924e-06	0.00013758959691176023	0.00011757183719533887	0.006549234113483211	9.809460315997397	0.0026948473231618564
2.402703	1787824725591108352	-4.723123979692003e-05	0.000136885630734062	7.315193515966993e-05	0.00514893342078532	9.808139258179205	0.0008297787744646094
2.409061	1787824725597108224	-4.632591990815547e-05	0.00016374407793950352	-0.00015111519445160746	0.007442159708274028	9.811390336211074	0.00692118638503407
2.415407	1787824725603108096	0.00011850740992955313	5.6404387906362905e-05	4.189440685270738e-05	0.002679576716778762	9.811839247433618	-0.0009130566291682012
2.420154	1787824725609108224	0.00016494873103409566	7.926343241823161e-05	-3.585025043933408e-05	0.0038643774394949795	9.81069510048834	0.003431399804266566
2.423062	1787824725612108288	-4.70059187306154e-05	-5.765052737666884e-06	-2.1179940722060117e-05	0.002119253047492636	9.81061800837973	0.004203750197740075
2.427652	1787824725615108352	9.509181259191623e-06	0.00012494387050227443	-8.393630029947297e-05	0.007180192699126344	9.814769471190527	0.0015137469873457655
2.432212	1787824725621108224	8.998688735741644e-05	0.00016846396688543133	0.0001410487225624719	0.007528217047824781	9.80894512558207	0.005465350089156825
2.435555	1787824725624108288	7.77817772908754e-05	9.065307416472073e-05	0.00011892898828400872	0.0031593848193818353	9.807721469920532	0.001580179953790241
2.440924	1787824725630108160	7.737191865029486e-05	4.894604578000101e-05	-5.320911327613745e-05	0.0030173676738575145	9.815117811548708	0.003553342561441644
2.450701	1787824725639108096	5.166588199503479e-05	-6.744245277788173e-05	2.5382161337209213e-06	0.004303022988900302	9.804560478253224	0.006180138677256066
2.451983	1787824725639108096	-9.314325928665581e-05	6.21999300870424e-05	4.1036427960327297e-05	0.007409295918022536	9.815848526047414	-0.0007781549053948169
2.455947	1787824725645108224	0.00025109042970697474	0.00023383376921759389	9.169961959757413e-05	0.0005203001158530663	9.813329626840286	0.0001558169658087932
2.461659	1787824725651108352	0.00018619043552706144	-5.547018460031234e-05	-8.725300616898001e-05	0.002366572274585033	9.810889307650061	-0.0031361852280190855
2.464075	1787824725651108352	8.219219167981307e-05	-0.00011630638701068529	0.00012288327234268937	0.0036892680486575683	9.806899297043262	0.003398056051895245
2.473492	1787824725660108032	0.0001171475281630444	1.9855930517466166e-05	-4.1334919874091715e-05	0.010302964805516382	9.807176612393762	0.006102299077733735
2.476474	1787824725663108096	-6.46241532360101e-05	5.836054804922343e-05	-1.1980105141243392e-05	0.002395483062790149	9.810400884999458	0.006195761851348422
2.482662	1787824725672108288	-4.214567253207556e-05	0.00010512479843662194	-4.186665985415787e-05	0.009247237679700288	9.806459591297083	0.0019559452965268623
2.486453	1787824725675108096	6.250520394881096e-05	-6.585199520555497e-05	-8.626948458773525e-05	0.0066095309634848064	9.811115922434546	0.00790302446602254
2.488936	1787824725678108160	-8.06728153514626e-05	9.657849117093538e-05	4.63873927497386e-05	0.006818391440528815	9.810997245583435	0.005512213287624086
2.500602	1787824725690108416	2.3145807835062112e-05	0.00015941713681102957	-4.83097096140893e-05	0.0013156817155562848	9.810969830298685	0.0036488439496934868
2.502358	1787824725690108416	0.00017394427709497	-0.00011073993660132601	9.483200194394714e-05	0.009428735724980309	9.812855634714278	0.0018080625929305552
2.505989	1787824725693108224	5.800299942247442e-05	-8.295698546745514e-06	-0.00011908867888767262	0.006193950268709819	9.813933212380128	0.002093706068386885
2.510952	1787824725699108096	-8.829785327263823e-05	0.00017235992578978982	5.361779796275257e-05	0.009308550401787576	9.81462031769168	0.001538008839785374
2.517064	1787824725705108224	4.69159497936161e-05	4.608382112317954e-05	4.8723208340548224e-05	0.002735189391150846	9.813916344711442	0.007517744948911238
2.522015	1787824725711108096	-0.00018904202982566076	7.595184547922337e-05	-0.0002200621364884646	0.005798804748008424	9.809840962058393	5.669032819943191e-05
2.525742	1787824725714108160	0.00017814234464300386	0.00018969819603909492	4.4556440460587435e-06	0.0019036353187109282	9.803774858868847	-0.00019701681185358734
2.531004	1787824725720108288	-1.0639525455057935e-05	0.00011272176107263636	-3.205749932656594e-05	0.0013394383523940433	9.807478591528836	0.004481017640569256
2.537955	1787824725726108416	1.955984105992174e-05	-1.9595826211575038e-05	-3.815277702522446e-05	0.00738663190735063	9.808911733795588	0.005396007656039586
2.544491	1787824725732108032	-2.0900903551188405e-05	-5.2811117935816643e-05	-0.00011383621767878304	0.00022947295982469768	9.808521735365064	0.0022845685472126062
2.545623	1787824725735108096	9.070390411107514e-05	8.65181474991802e-06	0.00011336826731601115	0.0019524013056440356	9.81183998871534	0.004394407914067047
2.552571	1787824725741108224	0.00011361637963626708	0.00017184592983452308	-4.2007131858285134e-05	0.0042338652419265065	9.813235059383901	0.0002399940407077977
2.559009	1787824725747108096	0.00025828570820109274	0.0002194891549369477	1.2080777298023645e-05	0.005608686004796031	9.811123522526106	-0.0004065200930060222
2.564467	1787824725753108224	-7.207590746193419e-06	0.00012617479217372956	-5.393190554556705e-05	0.005845805292476482	9.807423450165292	-0.001817936959731673
2.566079	1787824725753108224	-1.9124363420620036e-05	-0.00011277027111435261	-4.5249462234065355e-05	0.0063540029476190345	9.813376686250912	0.001368017044301653
2.570799	1787824725759108352	-1.3319746995932205e-05	6.160152976021764e-05	0.00014924334501179964	0.005055211542389105	9.816015001797975	0.0076892239971168685
2.576246	1787824725765108224	6.374256083633778e-05	-3.2828679835725066e-05	-9.974243641317846e-05	-0.001330899977568232	9.814135365712444	-0.0021255351361280724
2.583083	1787824725771108096	-2.2931432823803675e-05	0.00013289239920678003	-5.241667555052861e-06	0.0024933164217100364	9.811456318529741	-0.0010001751175797266
2.589353	1787824725777108224	-7.895630270909598e-05	-4.867302592323841e-05	-0.00018029611950549305	0.007586935365139445	9.813316387628621	0.005245916842672886
2.592463	1787824725780108288	0.00013362121207466154	0.00020613827897804932	-0.0001192611860126844	0.006350296390117358	9.81320890664471	0.0030854027706616657
2.595883	1787824725783108352	4.6662445999774426e-05	0.0001985790005776592	-3.096942943341504e-05	0.007644636976098775	9.813413881375922	0.003114055958182029
2.601159	1787824725789108224	-0.00011087255828398845	0.00010964731402364006	-0.00012152884193736656	0.0008568742285034988	9.80482516867354	0.004289088932003532
2.608360	1787824725795108352	-0.00011753339245482724	0.0002472358226739571	0.0001622659799623326	0.0055635263710869624	9.812997551322773	-0.0010790389833918953
2.611643	1787824725801108224	5.660782639409786e-05	-4.239895225546177e-05	-6.853663199875315e-05	0.0006521777025106272	9.807119360845576	0.006563955683762146
2.616883	1787824725804108032	2.576960978536635e-05	7.500305397246991e-05	-8.215545935191027e-05	0.00703447711683957	9.811511783227175	0.0027019763502336607
2.622739	1787824725810108160	8.035672012573331e-05	7.424850220841628e-05	6.520518313239558e-05	0.006405391389812827	9.812181844414873	0.00046637981827863046
2.627005	1787824725816108288	0.00012897300431439037	6.57454614389066e-05	0.00016808827316430744	0.002696814756637578	9.808533758560907	0.005665485129185402
2.632768	1787824725822108160	-9.116520640898092e-05	-5.74437937839694e-05	8.215744943044922e-05	0.0045286721004181565	9.814558329816887	0.004994056722739904
2.635690	1787824725825108224	0.00011968827967444012	0.00036148023720244683	0.00014625304429079393	0.003320968951057735	9.80878669332704	0.006940501287286686
2.642495	1787824725831108096	8.242510515095794e-05	0.0002547817711163067	-4.627210217045231e-05	0.008297012022453337	9.809272224200138	0.001488241035976268
2.648641	1787824725837108224	6.192289552829144e-05	-0.0001000305141908324	-0.00012132003789319391	0.002733616546206295	9.805271171302683	0.0037200440088348504
2.652391	1787824725840108032	4.741987800744103e-05	3.4252579410248516e-05	-7.261120321286887e-05	0.002424772675967918	9.810128704474499	0.002127485395347441
2.658385	1787824725846108160	1.868807432477155e-05	-0.00010709090193518468	0.00016485426943527482	0.006790823845374872	9.815618280770662	0.0017673684383049388
2.663711	1787824725852108288	3.913791345476958e-05	0.0001352748409895851	-0.00015794618775242806	0.0039033753258021354	9.813757166957581	-7.863217320023532e-05
2.667446	1787824725855108352	8.499951045730749e-07	7.595010708052071e-06	-0.0001985775455107985	0.00363480245201291	9.806217528984904	0.006221000372447552
2.674397	1787824725861108224	5.1038103531490044e-05	-5.305818289685936e-05	4.539660468463121e-05	0.005899844695886676	9.809016995775941	0.0055382135246610995
2.678610	1787824725867108096	2.375728682856598e-05	7.750552241316084e-06	5.179050661528803e-05	0.006749424014000263	9.81162098832886	0.0020474321478827482
2.683722	1787824725873108224	9.823473593654266e-05	-2.851235499215017e-05	1.086660099225414e-05	0.0024518479188634754	9.8098950173787	0.0014815637417171503
2.687313	1787824725876108288	-2.0696852295507783e-05	1.4865465837630237e-05	0.00016280975308678353	0.006875382246362869	9.814797863403294	0.00394489433729087
2.692733	1787824725882108160	-0.00014336777073625058	8.309958653449217e-05	7.615455404942659e-06	0.006866812384605609	9.81479170554292	0.005432200653957611
2.699475	1787824725888108288	-0.0001413816763701148	8.478950684372033e-05	-5.210699676466676e-05	0.0003784323790866368	9.808515031789883	0.002836759193385556
2.701735	1787824725891108352	0.00022700154049576886	0.0001414122021239866	-2.4647801803376077e-05	0.0013139204201579728	9.807206445611344	0.005293372608692915
2.708978	1787824725897108224	1.8624496571257397e-05	0.0002140287216717837	-0.00010753125338192346	0.011933129012552817	9.806897166459231	0.005769185646080746
2.709478	1787824725897108224	-2.2250362072296616e-05	0.00020874757594240505	-2.1498789358553144e-05	-0.0018375651525790113	9.806246316541532	6.828183485327755e-05
2.715147	1787824725903108096	0.00016877294417128432	0.0001506383612271976	-0.00026960347047326434	0.006280415713841579	9.808585363414537	0.005286684134200775
2.721480	1787824725909108224	5.199581388498585e-06	0.0003247999413898123	7.026645195814469e-05	0.0011802960713759	9.806002383373972	0.007475875494401041
2.728494	1787824725915108096	3.413135016834555e-06	-4.0529041154432006e-05	5.702918503599899e-05	0.005869483471719868	9.810087813744683	0.010185074412465626
2.731990	1787824725921108224	-9.756080930286715e-05	1.6634616936544925e-05	-0.00012614840994628747	0.0011179243367651264	9.806517853422502	0.0045983578211508894
2.735617	1787824725924108288	0.00011188984623682985	1.7218678042918765e-05	-5.98829577687555e-05	0.0012321576887484899	9.814505607304566	0.004192162763977023
2.743644	1787824725933107968	1.902000759701961e-05	-0.00010487558115721796	7.929627716848185e-06	0.002895720525362171	9.815706677439112	-0.0013183957238919893
2.746380	1787824725933107968	-1.3786020004788028e-05	0.00012643752068960677	-9.859126625627832e-05	0.005576804316432684	9.811522482746161	0.0026560245452122142
2.751322	1787824725939108096	-1.6985907649287687e-05	4.4039610256989395e-06	-0.00012164602418683673	0.006945910573435238	9.810907679661163	0.002594258628530405
2.756150	1787824725945108224	3.527552993318565e-06	2.8184958390800667e-05	1.1912763662372654e-05	0.0005105453369720009	9.813591603281557	0.0031926898252419974
2.761117	1787824725948108288	9.209067449056371e-05	0.00012398317302520645	0.00013862335343958114	0.006610591995319657	9.812871445908954	0.006279973796252706
2.766446	1787824725954108160	-7.991397321933535e-05	4.6550129935935126e-05	0.00014358988985466013	0.007059763082414344	9.808036077719136	0.002451957833652219
2.772903	1787824725960108288	1.4091398974874444e-05	1.8291590339887893e-05	-8.096310637987902e-05	-0.0018720584577549765	9.811447495511405	0.006124556229136431
2.778157	1787824725966108416	2.7978113719228697e-05	-0.00017076060018124867	0.00016452300398628298	0.0005694779851244339	9.81509722901757	0.004671761675124333
2.778657	1787824725966108416	-2.1470679208541016e-05	0.00011191297484247405	7.145769108918463e-05	0.00334675479452392	9.811303845622097	0.004243739571575003
2.791202	1787824725978108160	6.015469281728368e-05	9.749981964362895e-07	5.195434339672617e-05	0.002477686085699802	9.803654822983386	0.006956817139007497
2.791702	1787824725981108224	6.699875102351229e-05	5.082850331121143e-05	-6.263846379737912e-05	0.0036955054523716393	9.810667673047119	0.005433886287216955
2.797397	1787824725984108288	8.836805148719785e-05	-6.439261155934004e-05	6.410026886488099e-05	0.0026808880849364617	9.80692050057226	0.005041281629717154
2.800043	1787824725987108352	-9.912572787973706e-05	2.575207149373165e-05	0.00012470659483135256	0.007699556463260935	9.80973103122144	-0.0006726696254590781
2.808330	1787824725996108288	-5.938898657480328e-05	0.00011417050729725233	1.1297207162071813e-05	0.0030523834928876596	9.811536060839032	-0.00013926798440533003
2.811592	1787824725999108352	0.00012298079419821383	1.949059598096278e-05	3.4427276255256614e-05	0.0065116994680397	9.812830628060508	0.003498625062297262
2.818683	1787824726008108032	9.38296658804763e-05	0.00022581319514730674	-6.179932560779284e-05	0.008412690313479543	9.815275062289313	0.003613168588688299
2.821498	1787824726008108032	0.00022184651787162676	0.00010246773734845944	2.023304578787932e-05	0.0034089191357228373	9.810973484614978	0.0019877163557432695
2.829178	1787824726017108224	9.863096256854272e-05	3.435462644730224e-05	3.3658862989444827e-06	0.0022709908244292116	9.81173353732499	0.0021026845386222354
2.830478	1787824726017108224	8.984446466929122e-05	0.0002697460786479839	-4.258839897838747e-05	0.0003899468318081384	9.815236093233914	-0.0011531435439464644
2.837764	1787824726026108160	7.437268812461394e-05	2.6195320900931806e-06	-9.15106865061642e-06	-0.0004728203061049449	9.81152581110706	-0.0006634629752640935
2.843764	1787824726032108288	-0.00011900928440543408	2.9089636637659283e-05	-0.00014070232338852362	0.0060319974258157055	9.81053103807731	0.0012207818273059705
2.846962	1787824726035108096	-4.3371706960191724e-05	4.3674504571223774e-05	-0.00022971148094925366	0.006014622586629322	9.811072206389914	0.01160420876790932
2.849180	1787824726038108160	2.118718895210577e-05	-7.881905260864554e-05	5.680451152918143e-05	0.00959456776993675	9.809407365008129	0.00268789535624667
2.854192	1787824726041108224	-0.0002458457884475469	1.5867520811561977e-05	-6.615661771938486e-05	0.005527152120625773	9.809314937832875	0.002519187714572107
2.862358	1787824726050108160	0.00017897736595427988	3.0431094846090614e-05	-0.0001528019867988431	0.003966877797712169	9.807135732956649	0.009396724136921372
2.864615	1787824726053108224	-8.501121998225927e-05	1.3812004121085535e-05	-4.967475993012619e-05	0.0009496131219242235	9.809540455441295	0.004498962674001456
2.872879	1787824726062108160	1.974562475667644e-06	4.143306315011345e-05	5.3483290701604135e-05	0.007532136362803678	9.815992122603289	-0.0018641899355422071
2.876583	1787824726065108224	5.404642274157839e-05	-4.4946428309288806e-05	4.887408592456245e-05	0.005994532833802391	9.814724357881046	0.0069987957765825105
2.881577	1787824726071108096	3.1869417870753803e-05	3.410044773326411e-05	-5.799017571411202e-05	0.006501907723401318	9.808788742896276	0.00437032844030499
2.886474	1787824726074108160	-3.873069924208458e-05	-0.00011519894692731686	2.7123669585785958e-05	0.004751838433415978	9.815815669519838	0.0028709816011343323
2.892018	1787824726080108288	-6.1020795770813795e-05	-8.05497778187781e-05	-3.972623160871283e-05	0.005813507530599987	9.811005669213877	0.006049858632364877
2.898119	1787824726086108160	0.00023460672675941648	9.721352425102683e-05	5.194898897161066e-05	0.0030995838104038577	9.813480402048846	0.002891022887342331
2.903165	1787824726092108288	-5.454110639457089e-05	0.0001731419416727466	-3.442688516854862e-05	0.003384415483089186	9.814096470246408	0.004599422031778545
2.904171	1787824726092108288	3.4069046836719746e-05	0.0001555086037608197	1.2334286374766773e-05	-0.0018924373352832945	9.810334359055094	0.007566425231366192
2.913539	1787824726101108224	1.3000354647820142e-05	0.00021513950755909029	-4.1004630715541524e-05	0.005005551195830595	9.812093102347378	0.00044373663287096106
2.916277	1787824726104108032	0.0002706896311495252	-8.944138429399157e-06	-0.00012174066045152802	0.005870368828804744	9.808605710323086	0.004551198101945203
2.924861	1787824726113108224	-2.644391276484628e-05	-5.193543029249764e-05	1.2842262176407442e-05	0.0023256198223591865	9.810941280306613	0.001888025017190934
2.926174	1787824726113108224	3.01739782854445e-05	3.078571856153881e-05	4.0398165421131296e-05	0.0025829070241095158	9.816662286286922	0.003402730660950667
2.930481	1787824726119108096	-0.00015789277194937446	0.00014146287735226652	-1.183559688148558e-06	0.005439834315769472	9.811131677499615	0.003014080696844473
2.935703	1787824726125108224	-5.105125861924432e-06	0.00023324777767962893	-8.111145062491381e-05	0.00459790827419464	9.818585184511104	0.00569476016737354
2.942539	1787824726131108352	0.00011611979431136645	-4.877718527042262e-06	1.630962244338024e-05	0.004910509095627581	9.814036933573705	0.004144112094761706
2.947275	1787824726134108416	0.00012548313610487123	5.876680610939701e-05	-6.206421685956381e-06	-0.002036581235051716	9.815324556023524	0.004286567711232487
2.950921	1787824726140108032	2.695205477906603e-05	4.7902549355447895e-05	-0.00013992030101117606	0.00493249710882029	9.81491584964372	0.008276452812390029
2.956007	1787824726143108096	4.743246800934202e-05	-9.167129530257433e-06	0.0001518775583373916	0.002809217430371113	9.810183854094328	0.0023043053086849153
2.960774	1787824726149108224	8.057397937819688e-05	0.00011060688367125771	6.97069426375438e-05	-0.0007974005784870033	9.812715456267775	0.003695280283222926
2.969612	1787824726158108160	0.00029883811975908796	0.00021545727826731802	1.7228153699597712e-05	0.00903178509925446	9.809921661888264	0.0011614093861686864
2.972451	1787824726161108224	9.905205762061642e-05	0.00011631460052039427	-0.00017359665265670403	-0.0011497635558982752	9.811696226986216	-0.0029973334609754688
2.976846	1787824726164108288	0.00018853010694333972	0.00010705782449471461	1.9458623069856657e-05	0.010996982982182175	9.812329967155073	0.006379788201702315
2.982347	1787824726170108416	-2.7182338284814655e-05	-0.00010856885604233892	1.9632377464842366e-05	0.0007370963575025515	9.811905023099087	-0.0017858945240388203
2.987631	1787824726176108032	-0.00011500724106274937	-6.982975153474924e-05	-0.00011163763666796965	0.0007243105644882631	9.808592489634544	0.002006275387592269
2.991987	1787824726179108096	7.73589832159656e-06	7.758484199279245e-05	-5.723753048805789e-05	0.005084665774819183	9.816167916560127	0.003407806742807662
2.998016	1787824726185108224	4.839242160666883e-05	0.0003658682973422232	4.093140408233215e-05	0.0032081367973113136	9.810256345338761	0.004558187653685533
3.003762	1787824726191108352	5.8474717656492294e-05	-1.6686320790674354e-05	-0.00017874628529399787	0.00866450741385779	9.816419363072384	0.0009628621426846142
3.007514	1787824726197108224	3.550371356638986e-05	-5.5173518646944025e-05	-5.3367475997205673e-05	0.00964852404621237	9.815802574594525	0.005453832072185526
3.012307	1787824726200108288	0.0001285928632075834	4.894449383634791e-05	-8.034894145644214e-05	0.008260239800913206	9.814662693915665	0.0061298410701903895
3.016590	1787824726206108160	6.0560586594950385e-05	-4.097817951111608e-05	9.865525442121372e-05	0.006098714861435625	9.806694598085034	-0.0034395548422088596
3.023446	1787824726212108032	0.00010430179026929165	-0.00010254086553953523	-7.404711472212547e-06	0.008236779268383388	9.811862264564311	0.0007049911219321101
3.027317	1787824726215108096	8.388323609929952e-05	-0.00012968527134194844	0.00010535730345995591	0.001968182828094481	9.80899180346478	0.001004403670180658
3.033069	1787824726221108224	0.00023734728347112386	0.00018692697988618504	-7.271127350566648e-06	0.007157537754176949	9.808528078036874	0.0027947956131592028
3.036454	1787824726224108288	3.010777987978605e-05	-8.605680017002393e-05	1.1951743887083766e-05	-0.001960352619241125	9.810530386390807	0.0073577988985630335
3.043768	1787824726233108224	-9.962817600381412e-05	0.00012496018854367104	3.94689691445904e-05	-0.0004953977627099836	9.814555789731997	0.0017871864845529922
3.046245	1787824726233108224	-3.511329602947653e-05	-2.882150434647293e-05	-5.544111441272581e-05	0.005906283958931549	9.814601398496011	0.0019243640661417312
3.053380	1787824726242108160	2.0462215248647887e-05	3.5716504486655394e-05	-0.00015210252353020428	0.01071143645487313	9.813547489495791	-0.0010593167540016326
3.056130	1787824726245108224	6.786782364412944e-05	0.0001149284641815545	0.00010089260228985019	0.005013198184575727	9.809142223704091	0.001943917519804538
3.061918	1787824726251108096	7.9430586912724e-05	0.00020083609723653203	2.188443661996186e-06	0.0032129920216804296	9.817858969796147	-0.0003501221159820105
3.070569	1787824726260108288	-1.578472216447086e-05	-6.763843497592089e-05	4.9994356502402004e-05	0.002803583340767592	9.810854283095642	0.0009439342267577406
3.073279	1787824726260108288	5.919614744926844e-05	8.132646206586291e-05	-0.0001653704688877012	-0.004226197943674294	9.811582280477408	-5.3099974355207656e-05
3.077600	1787824726266108160	-8.745453413392812e-05	-7.049079091658679e-05	-4.521008781387669e-05	0.0037230761427268838	9.805948431465694	-8.411771608409597e-05
3.083729	1787824726272108288	8.32427337621742e-05	-0.00011974100954726664	3.7839107232691146e-05	0.005621307834482721	9.811573445730087	-0.0011706388847776733
3.088978	1787824726278108160	-6.15966255068007e-05	2.2208267685935214e-05	-0.00015500674666799107	0.008181879792779857	9.812535887757848	0.0038827926427417703
3.092566	1787824726281108224	7.435008558066302e-05	-1.405017025008906e-05	-0.0001891246769928923	0.010139722251592907	9.80898213306975	0.004959216325182149
3.096376	1787824726284108288	0.00015262824840779043	6.517845279619319e-05	5.349030961117447e-05	0.006341241749498468	9.812795237487771	0.002542083667200499
3.099940	1787824726287108096	-1.899500156265724e-05	-3.2658784389452674e-05	0.00010566340658531531	0.006489975712461157	9.80541427611861	0.0024928100302197198
3.106068	1787824726293108224	0.00013323154803363257	8.540955569805293e-05	0.00012083172103942287	0.009537854513139796	9.807692372611042	-0.00026321758244204777
3.115045	1787824726302108160	-3.133203772373675e-06	5.1870655675788704e-05	3.8317786310166954e-06	0.003655585011782531	9.81414164074702	-0.0031999423179318305
3.117580	1787824726305108224	0.00014681866170732246	0.00019923510182795267	7.169442586844555e-05	0.006081714308710978	9.811825327996017	0.0055632337810716595
3.122727	1787824726311108096	7.833279347163174e-05	9.171377211335874e-06	0.00017536775374700739	0.0040833591211760995	9.809669671974026	-0.0008097209115672365
3.127766	1787824726317108224	1.3430973559005343e-05	5.421311395543418e-05	-0.00010818765158546776	0.005784443841610657	9.810760181562395	0.004788730634664522
3.131017	1787824726320108288	0.00016461703480898164	-0.00011859370084866752	0.00014336533982457783	0.000672312720338946	9.818265007353554	0.0077300910963512305
3.137563	1787824726326108160	-6.22895092561872e-05	0.0001017172497567647	-0.00015009754481652067	0.006403305549622161	9.81646892489125	-0.0015408355493723284
3.140815	1787824726329108224	9.597131601157866e-05	5.810136341431257e-05	3.4812310734216886e-05	0.0007239815544740199	9.80434918556515	0.0031875025559233525
3.148810	1787824726338108416	3.9527958599788e-05	4.889206231014424e-05	-0.00011968586740855606	0.007323759762956208	9.808127173071872	-0.001832536666547388
3.154534	1787824726344108032	-7.608235222517145e-05	0.0001128423442147325	9.92187905049141e-05	0.0046579489562861886	9.810478857705519	0.0017793951881953088
3.157691	1787824726347108096	0.00019662355182129633	-0.0001488909099413999	-3.7010713513198225e-05	0.0028559322576006633	9.811119079862141	0.001887782708697613
3.164687	1787824726353108224	1.041859622691053e-05	-6.607534192254488e-05	0.00014866574996729668	0.005286784491230211	9.810365330056937	0.0011262250007184568
3.170356	1787824726359108096	-2.1026250878101854e-05	7.60373248150688e-05	1.494198205422082e-05	0.005660736591137482	9.814006009725686	0.0008151246466982513
3.171475	1787824726359108096	7.931593954692753e-05	-7.42432632608177e-05	4.306506026239319e-05	0.0056535136685063585	9.816654940211881	0.005200305896186778
3.177674	1787824726365108224	-4.3029082827476104e-05	6.294287591775384e-06	-0.000197569768592624	0.002166622359370223	9.809519312237324	-0.002168398187978014
3.180971	1787824726368108288	2.2990578676395995e-05	0.00013269402050251862	5.619233865917729e-05	0.0070323967294606965	9.810442817820727	-0.0017038585378566242
3.187264	1787824726374108416	3.4439280051925565e-05	-1.8992937129803707e-05	2.4593054783760434e-05	0.007790174529564138	9.81136904508353	0.00023239862108595088
3.194788	1787824726383108096	-1.1144489311007525e-06	1.1466933499099548e-05	-7.819876387064119e-05	0.003961372807551758	9.812416141708496	0.0017843827260257737
3.198601	1787824726386108160	0.00020979754222884717	-3.636192323796267e-05	5.5427550931142446e-05	0.002236537651612755	9.812304449653997	0.0031731103315391306
3.199887	1787824726389108224	4.169680542844129e-05	1.9352201645886058e-05	1.1405323929847979e-05	0.005075632054981687	9.80882202120187	0.005082765157616379
3.208724	1787824726398108160	0.00013066248546333617	0.0001180925066386293	-5.8446737973227966e-05	0.006238203915905743	9.811205123027353	0.00454342419885705
3.212649	1787824726401108224	-1.8880243648455966e-06	7.628226850176902e-05	4.875050377421632e-05	-0.003328031131815295	9.808194893664544	-0.002678659869768236
3.214698	1787824726404108288	0.0001763656682534335	-6.761324314698847e-05	3.5785041444623236e-05	0.009727165576018982	9.811129484756766	0.0035556843944265326
3.223700	1787824726413108224	-8.069304858263064e-05	0.00016500685301109596	3.621054578780909e-05	0.005971728282201562	9.813665685789713	0.001091344019577398
3.227130	1787824726416108032	-8.393108094554038e-05	5.9709037922325226e-05	4.9015235951741887e-05	0.006973010366239199	9.807175990560056	0.005213117437641282
3.230709	1787824726419108096	8.831257899163559e-05	7.229931006225837e-05	-0.00011521537285087394	0.004405329669557797	9.811984656567912	0.0053293104196615974
3.236725	1787824726425108224	2.4609713982834824e-05	6.64860718830634e-05	-2.9934659637400907e-05	0.00903582612780076	9.809948333420795	0.004812598616193637
3.240669	1787824726428108288	0.00014317530600200894	-2.458651823891591e-05	5.3625895169034156e-05	0.010610892925925378	9.80643908731999	0.0011796548398090565
3.245825	1787824726434108160	8.961778461994349e-05	0.0001530406145206792	0.00023853514997026614	0.008612650756640307	9.808728718573931	0.002789012747291133
3.252686	1787824726440108288	-4.5286747150931794e-05	7.797571362662056e-05	-0.00010691816685913212	0.004498338965868108	9.808060807431726	0.0006422137976103974
3.255332	1787824726443108352	-0.00017214177213573177	9.711024500260812e-05	-7.594382776659777e-06	0.0017006563584011174	9.811368796594898	0.004841411015486845
3.261006	1787824726449108224	2.583085125589191e-05	0.00010077362190431447	4.534410077868109e-05	0.005106302877614082	9.812266437829006	0.0021228498433672784
3.266366	1787824726455108096	6.036608576021192e-05	-0.0001623016176457272	4.480022300008093e-05	0.00603429052873454	9.809689218400129	0.0010104716179379868
3.273252	1787824726461108224	-9.77286929043534e-05	2.7866697538767666e-05	-0.0001414274969561705	0.004713404246648001	9.815782541905815	0.004755612116744783
3.278429	1787824726467108352	0.00019530072625561622	-4.107798692182398e-07	8.843289863989658e-05	0.009497224699742526	9.81605544046465	0.005458236027493197
3.283978	1787824726473108224	0.0001829924946612526	-7.242088518747058e-05	5.686099889786588e-05	0.005035888685941323	9.810725960950263	0.0027805909114985965
3.288881	1787824726476108288	-5.1654642126661255e-05	4.6890014221671116e-05	1.962634469083492e-06	0.00481763138777133	9.810685374713614	0.006682822168817529
3.291658	1787824726479108096	0.00018947029752473934	0.00013023903634948086	-6.183451070644713e-05	0.0016075107089994004	9.808339192084462	0.002165288914489051
3.296842	1787824726485108224	4.264311010191371e-05	0.00022245865032227385	0.00021915467060165263	0.0020203974960767935	9.809683901081094	0.0001224410071775919
3.300332	1787824726488108032	1.4099254966746089e-05	-0.00011327305193181513	-5.987934554886802e-05	0.0003856628643788872	9.808699361190506	0.006117718174835021
3.309586	1787824726497108224	0.00016255597105929552	-8.565063395275208e-05	-0.00014492430823758397	0.007468615747458009	9.813909566290146	-0.00015705634241031585
3.313537	1787824726503108352	4.3601218961015e-05	-6.111748672964009e-05	1.874431843795141e-05	0.0022713941255985866	9.815167927246844	-0.0007205783611375538
3.319045	1787824726506108160	1.610138335220709e-05	0.00016703167741410272	-0.00012822543761188243	0.005823421177634187	9.809061339441246	0.0028528039002638085
3.320812	1787824726509108224	8.745577173507435e-05	-3.493507798332786e-05	-0.00016192922431548454	0.005039558921597494	9.810945990033952	0.006838261621493168
3.327369	1787824726515108096	3.8759936948136636e-05	0.00021198878440485382	-2.1121989866033145e-05	0.0037211672403379466	9.808383201105316	0.003086547427366273
3.331693	1787824726521108224	1.0873839685293467e-05	-2.428322919487266e-05	1.542810599694786e-05	0.005145294161456651	9.81205708190552	0.0005657232228676637
3.341113	1787824726530108160	2.1229129586389704e-05	-0.00010524499778452831	0.00016256127026035333	0.005457874630450863	9.805262935773499	0.006084267760858594
3.341613	1787824726530108160	0.00019037006948557065	0.00015407638098369263	1.3351613281229607e-05	0.005913967761668737	9.810267770151624	0.004800538464051508
3.346836	1787824726536108288	5.283973056545442e-05	0.00014246602193864594	-0.0001078762041485241	0.00441480233641658	9.808507266080639	0.0069655589793900154
3.352870	1787824726542108416	0.0001342935221244312	-8.318732125352534e-06	9.087336990623143e-05	0.0030612449920131846	9.81276560469247	0.0018767363106295869
3.357695	1787824726545108224	2.739261794614474e-05	0.00012606668425465037	6.08658681029681e-05	0.0003065330753471221	9.812943228239812	0.0006926556708374645
3.361346	1787824726548108032	-3.374029262379714e-05	2.455731313084258e-05	0.0001252713029063249	0.0025575150192181455	9.807356238411767	0.0067777228931783715
3.367724	1787824726557108224	-3.713205602939534e-05	4.356726556589871e-05	-0.00013266090207810367	0.006246194790089294	9.81176596732861	0.0010798254206921454
3.371553	1787824726560108288	-1.2384683649474076e-05	-0.0001245631739284395	0.00020107005155665648	0.003405310812425871	9.810669800357553	0.005541280735612675
3.375342	1787824726563108096	-4.769852710465962e-05	-6.806222294733011e-05	9.572789452895731e-05	0.004876513770325752	9.808196607202214	0.005970761588156927
3.383859	1787824726572108288	-6.426676128116327e-06	-0.00011074930705271357	-0.00017707209110156383	0.0014850198007602127	9.810797544020865	0.0074808897630767885
3.388043	1787824726575108352	-0.0003145013546786798	7.256783257609353e-05	-1.7141941540980297e-05	0.00598276267870521	9.805647435306469	0.004634022111585599
3.391687	1787824726581107968	-3.317342709277097e-06	2.7447278928953126e-05	3.3570140828677345e-05	0.00577845716378049	9.810032195382254	0.0022278317741599054
3.399513	1787824726587108096	0.0001879986140242256	3.38129486907515e-05	-0.00013733386526565617	0.006326382993206481	9.81004438107097	0.0031415514877900503
3.400013	1787824726587108096	0.00011718079541007488	3.822160716824091e-05	-3.3480733353223754e-05	0.0032922506863845634	9.816433260884693	0.0020799154078414007
3.406288	1787824726593108224	9.565865155777072e-05	-9.286364917173134e-05	-4.227412508429811e-05	0.004338953219632849	9.815784093962463	-0.0012471605479881186
3.414160	1787824726602108160	4.469363603156947e-05	2.1749375614344096e-06	-6.486696245009256e-05	-0.0023290039018302715	9.80989740784639	0.0008087610119593036
3.417920	1787824726605108224	-9.383185293206495e-05	-8.687192683617682e-05	1.769180786312918e-05	0.0028460520167234134	9.80841950106826	0.0017369343464671675
3.422373	1787824726611108352	-9.139372852393677e-05	0.00015809161248113356	-9.791787446574323e-05	0.007412344456905695	9.812489170185055	0.0033582913673355416
3.426607	1787824726614108416	0.00017622408168465237	-2.6248853120080327e-05	-5.223640490919737e-05	0.006604004882247671	9.809865796676428	0.0019304587882811
3.434078	1787824726623108096	1.7192864084834426e-05	7.575995440673542e-05	-9.353054246616282e-05	0.008633589489786576	9.809640570106483	0.0014968013136989133
3.437908	1787824726626108160	-0.00014854129344485416	0.00019481466563587172	9.683532242964387e-05	0.0065187569336833465	9.817962722711572	0.0036124468836803486
3.442545	1787824726632108288	0.00021821225991458418	7.69337864855293e-05	0.00013736826153778578	0.0038714139390212806	9.809686064724202	0.004309066747738351
3.447953	1787824726635108352	0.00019200747881266243	8.00265858062398e-05	-2.9154168048463253e-06	0.0019667244638936414	9.81819450676142	0.005922014248523719
3.453940	1787824726641108224	-8.368310988749875e-05	9.032922319569841e-05	0.0001389315639878054	0.006160152770426288	9.813313049014157	0.0035223570443249194
3.455497	1787824726644108288	0.00014379572621909376	-8.939538737522574e-06	4.2420827945999436e-05	0.0042420679645595585	9.81363269354503	0.0042749350269733555
3.461040	1787824726650108160	7.920551081382689e-05	2.564643270458716e-05	-4.3193393622847714e-05	0.00339316639931098	9.809230443765282	-0.0005343479100131106
3.464830	1787824726653108224	1.609782802270824e-05	0.0002165711458965906	-9.819853089646742e-06	0.008396611658225403	9.80853344395566	0.004835764061467102
3.472347	1787824726659108096	0.00026230810185246	9.599179668887448e-05	2.0508549302511498e-05	0.006587470780264587	9.812249078848774	0.0028032743842804756
3.475888	1787824726665108224	0.00012299058727120103	9.1888760057144e-05	-0.0001278042941083589	0.0034652046448441095	9.81639573102229	0.0008087439563469008
3.482815	1787824726671108352	-0.00015282190758069932	-0.00011146133258338291	-5.412886813833588e-05	0.0005693417632531023	9.809648273565427	0.004100451980055526
3.484053	1787824726671108352	-6.0203426446163016e-05	-0.00012875634788315438	-3.415575624022855e-05	0.0037176986405232128	9.809061150945158	0.006957507610028136
3.495375	1787824726683108096	0.000124975972370976	0.0001970487339622305	-0.00013566965955230268	0.00469712351251528	9.805882520519521	0.0029118316501407864
3.496468	1787824726683108096	-0.0001176068520073864	0.0002254933686713098	-0.00016285712140227411	0.0006640893680208686	9.811618609831163	0.00608740575742592
3.503489	1787824726692108032	-7.96542339227366e-05	-0.00014010549251320322	0.00021570745599217844	0.007237504396580118	9.817906749713718	0.002835677657809799
3.503989	1787824726692108032	-3.109720779475596e-05	0.0001298585248256792	9.6473505815016e-05	0.005736913199352225	9.820698305979276	0.0028584568593789826
3.514486	1787824726701108224	2.821840794584703e-05	6.229207500899102e-05	2.0827412378386534e-05	0.003172544160266267	9.806634753685172	0.008251758318030109
3.516770	1787824726704108288	0.00011610562261896672	0.00018362699029711408	-0.00012008904783546359	0.0077863613668096915	9.809661538959043	0.0014565366103884564
3.520482	1787824726707108352	1.7467507294262283e-05	1.7530833671863256e-05	-3.9422521869084727e-05	0.004310990274651557	9.809421023818354	8.23825931235379e-05
3.528610	1787824726716108288	1.3551346957227074e-05	4.846186634086488e-05	-8.965707725623851e-06	0.003286166663765169	9.81603868288401	-0.0009724016828345831
3.533159	1787824726722108160	6.6536144618945e-05	0.0001738895524293966	8.623201343751722e-05	0.006332826560273516	9.80926240832389	-0.0025193275940897006
3.537396	1787824726725108224	-1.5968652083773344e-05	6.26772369054744e-05	-2.6115401491373384e-05	-0.0005856537722644037	9.810759660648019	-0.0008422834284530943
3.541752	1787824726731108096	-2.670962137866123e-05	-1.7547156793191915e-05	5.2452095012518285e-05	0.0034308180965156327	9.813331610622184	-0.0008811985245616933
3.547832	1787824726737108224	0.000161355610397419	6.703435743763547e-05	-2.3350694101685323e-05	0.0046321788215155845	9.813950827294791	0.00533202534869783
3.554040	1787824726743108352	0.0001209110670741326	-2.648935238672439e-05	-4.988498578774744e-05	0.00555859328109755	9.812844568815809	0.006458646166731019
3.558703	1787824726746108416	4.13665436305837e-05	7.304557958042123e-05	-0.00013472517586429132	-0.0023953187105553	9.811835617393086	0.004008370042759298
3.562770	1787824726752108032	-0.00010658534906612156	1.821696113253649e-05	-4.5148125979660266e-05	0.0037556723685870114	9.810400733210747	0.00022709979072449947
3.568146	1787824726755108096	0.00016578144016360103	-4.677691749661622e-05	-0.00011752107653796085	0.008049142073718641	9.809370243263674	0.0033926215516149718
3.570831	1787824726758108160	0.00013894015424125678	-1.3925118530160465e-05	4.7488497818233105e-05	0.003111924569474105	9.808204859702153	0.002767274558768231
3.576577	1787824726764108288	3.939836361094901e-05	-0.00014990359465664682	-0.00010116136416276199	0.0077083572332506105	9.81172145708962	0.002044395641388801
3.582162	1787824726770108160	-3.774987162069655e-05	3.988741084411377e-05	4.734765802275344e-05	0.0012665111492161517	9.811295700666406	0.003374498792554515
3.587509	1787824726776108288	8.293820638428687e-05	-8.055279301961822e-05	-4.012599340191583e-06	0.009952507591250395	9.810605213936062	0.00298950949069056
3.593742	1787824726782108416	4.74746444812864e-05	6.293124709861965e-05	-3.319420060542174e-05	0.0008415568204956717	9.80893017697718	0.005842973875561518
3.598894	1787824726788108032	0.00017190585303742962	0.00038997468394143616	-7.36817037071245e-05	0.004205681892404201	9.814813388308524	0.002919679654196807
3.603165	1787824726791108096	-0.00025345992503852114	0.00013272730027563204	-5.969656625524085e-05	-0.0004396502910831738	9.810765123786748	0.004947088359980336
3.607781	1787824726797108224	7.282819192145484e-05	0.00013477407597032323	9.023660465380454e-06	0.008580404434328594	9.806517280253766	0.003991922008648348
3.610524	1787824726800108288	-3.519734541924526e-05	0.00010885711872579774	-6.482720584311273e-05	0.00783805751339426	9.813752327803225	0.0033844737763707184
3.620532	1787824726809108224	0.00019227517457994994	0.00010352646916581004	4.8883773864858926e-05	0.003725488798378588	9.810916847594036	0.0020347423556868584
3.622798	1787824726812108288	6.866454031411121e-05	4.802551548449803e-05	6.760130092962568e-05	0.0035720616162231702	9.8106898789712	0.0028837504866104004
3.624379	1787824726812108288	8.717824840622252e-05	7.724875354711619e-05	-4.814369724252834e-05	0.004631486729330447	9.81224469527276	0.0066398566306062334
3.632640	1787824726821108224	8.909705530287754e-05	1.365333987814526e-05	-5.6179201470951235e-05	0.0027933831475845726	9.816517429781621	0.0008857878490032829
3.636814	1787824726824108032	-6.626073616831779e-05	-3.762782733062612e-05	-0.00011998667354601514	0.0049558656338739215	9.812548583164466	0.004937768523562234
3.642118	1787824726830108160	2.5972584217792932e-05	7.259897427673069e-05	4.672342834688386e-05	0.0007831679050350621	9.809757627089033	0.010439171983162179
3.645298	1787824726833108224	0.00019671379737543076	0.00012600070203774199	-4.680733075672081e-06	0.004727150794495345	9.810781483767439	0.007299401687692159
3.652968	1787824726842108160	1.3783136449148557e-06	-1.5642805760967602e-06	-3.306793605248803e-05	0.007855107113485364	9.809987249715297	-0.001631656053903432
3.657255	1787824726845108224	4.1245122049066406e-05	0.00024161829757719214	-0.0002708773666177137	0.004920639317329571	9.816908269472123	0.0027721167458165533
3.662866	1787824726851108352	0.0002166847464728208	0.0001220230086552382	-5.393272345643051e-05	-0.0018927280513259754	9.814672928427333	0.0006216043333042761
3.668198	1787824726857108224	9.547578568751267e-05	0.00012086847743703605	-0.00012280881452532503	0.001658587333546879	9.810769444853749	-0.00040773907525543237
3.671288	1787824726860108032	0.00012537244010445316	6.727453768935148e-05	0.00010594208426879364	0.007166336739228837	9.811534089468461	0.0019319414308215884
3.678131	1787824726866108160	0.00016068363510432298	2.836567101018145e-05	-6.508182042922917e-05	0.0032785853146903325	9.814094284971567	0.00516317348649358
3.682132	1787824726869108224	5.0860580546454576e-05	-0.00025411985093057754	2.4358610012191896e-05	0.005711343200637398	9.813943880087745	0.005853786931748742
3.690064	1787824726878108160	0.0001325708331804074	7.540132124187418e-05	0.0001166900809205206	0.007720138616970943	9.812796646428339	0.006169529224321246
3.695763	1787824726884108288	7.779105142536406e-05	-0.00019827408323594957	-6.049942614941025e-05	0.007464705935654363	9.812221711751544	0.00095695389221644
3.696263	1787824726884108288	8.380289037027133e-05	0.0001323808231796415	3.291846681123763e-05	0.004656642174531633	9.811799094024027	0.0060091959600922515
3.703301	1787824726890108160	-3.403055086225693e-05	-9.87861111306429e-08	0.00013918601015701135	0.0025752783130154368	9.816906375245878	0.004703796360558253
3.707921	1787824726896108032	0.00022344127401224383	0.00011423690396693097	8.48682230924821e-06	0.003496075313968489	9.811084663695869	0.0033696532049775256
3.710064	1787824726899108096	4.405730346415871e-05	0.00011253397381013821	-0.0001492475181230921	0.008999205326245555	9.815105379240888	0.008690855478426632
3.718336	1787824726905108224	0.0001173926747054242	-5.599468669886905e-05	-8.152600695940669e-05	0.005796571584857666	9.81568950393046	-0.00012309877724905795
3.722717	1787824726911108352	1.3666650814821537e-05	-9.845362953935598e-05	0.00010652899974536315	0.0041027047965654095	9.81213566755739	0.0015699548658599887
3.724643	1787824726914108160	0.00010338689368893004	0.00020894894543286856	0.00011050967816984844	0.00029389525755157964	9.8124144895342	0.0006691368870471244
3.733858	1787824726923108096	0.0001218007136470117	0.00010410653920363806	1.7145736830572108e-05	0.006235270580402516	9.80749253834126	0.004868295897558876
3.738854	1787824726926108160	0.0001404304756814052	-7.973692766614385e-06	1.3043071398099303e-05	0.005658477542016996	9.810256000229256	0.0016097600906001134
3.744667	1787824726932108288	0.00013376375833164372	4.149046108617926e-05	0.00022199138913542632	0.0008907897146331646	9.811855203564647	0.006247292938524896
3.748238	1787824726935108096	5.4073231842140086e-05	3.281070721163129e-06	2.6314578888047184e-05	0.0029093995821764308	9.810628693216243	0.0008185202818117416
3.753126	1787824726941108224	-0.00011703256486344489	0.0001091787749975477	-9.059148592721772e-05	0.008940672945666337	9.8151996671353	0.00787913176155788
3.756355	1787824726944108288	0.0001559691444381697	6.322501963248972e-05	0.00019959853033473042	0.005329939100640208	9.80806654501334	0.0006217943551951447
3.762073	1787824726950108416	0.00012156924064981576	4.481519290354336e-05	-0.0001900351910642254	0.0034491850183606784	9.810673396989658	0.005115574214312557
3.767899	1787824726956108032	-7.113907408948418e-05	5.078493750764074e-05	-4.906340742637452e-05	0.002439098526830187	9.811140796830754	0.0021626802118982556
3.773483	1787824726962108160	5.651999301687613e-05	0.00015062792922467135	-0.00016938740078785718	0.005095221735155307	9.808447358583523	0.0018577735288394274
3.776547	1787824726965108224	0.00016255534613391433	0.00011460274258287895	0.00013489030255017532	0.007270956634743168	9.807921704682796	0.0017716681122141825
3.782228	1787824726971108096	-3.846423160568689e-05	-5.079308542820869e-05	4.618938275039967e-05	0.002494498586866112	9.817093094004642	0.006487023026494437
3.788946	1787824726977108224	0.0001383523284658098	2.8794978404550618e-05	1.6668113971836394e-05	0.0028305163389813707	9.808754704918828	0.003465831998619612
3.794976	1787824726983108352	4.9462197283697254e-05	8.218835700983289e-05	-0.0001833451774557527	0.00847331459237569	9.811362101515924	0.006749760794554258
