# time_s	timestamp_ns	wx	wy	wz	ax	ay	az
-0.001154	1787824723188108288	-0.004445631594618164	0.0017216318060320787	0.0030247866750731088	0.08984788236746735	9.786558066310091	0.05921187261074724
0.008456	1787824723197108224	0.0017674610289904026	0.003429825304688321	-0.0029629848310369147	0.24044633128868387	9.753194217652918	0.14574362561261242
0.016214	1787824723203108352	0.00020196653497193333	0.0016015016201001745	-0.0007010149421032713	0.005251320056012351	9.682785940622116	0.05319354305579023
0.016714	1787824723206108160	0.0009428982539699301	0.007945522514136454	-0.004180133381593459	0.14742791948772183	9.81183829241199	0.07463600218147314
0.020206	1787824723209108224	-0.0005881939061323843	0.00588471263986668	-0.001544934903576839	0.17496071245332964	9.6875202687107	0.10167382986077614
0.028230	1787824723215108096	0.002011676233356499	0.0015028610417295821	-0.002794341965994993	0.06963753415319138	9.870193194906083	0.057789810952786194
0.037275	1787824723224108288	0.003483603352068705	-0.0034810147381694745	0.0023928732496164276	0.1651066502517381	9.832786636871836	0.25211346809406376
0.037775	1787824723227108352	-0.0009127177228179348	0.004753545883328262	-0.005742371677154745	0.06728271427161112	9.843004218854098	0.1578198465449433
0.044195	1787824723233108224	0.0006837337906313514	-0.002371288825601931	-0.002013029304118364	0.1539291284743093	9.757650783595885	0.20825936239136678
0.048242	1787824723236108288	0.0007085336553712307	-0.001168094878608747	0.0026743553117673895	0.11074600066259405	9.882715720513367	0.07779484024801953
0.051328	1787824723239108352	0.0007536920758178622	0.00045490580943257806	0.0019492426326487428	0.04531297427848872	9.850960781570581	-0.014083035891969568
0.056366	1787824723245108224	0.006054116078526484	0.00045454187826624915	-0.003693905311346158	0.16899200510020507	9.74556355767117	0.20690320325260197
0.065580	1787824723254108160	0.005191552032593674	-0.0017813652645537693	-0.0063150286099530805	-0.00013602095511602158	9.82461001226138	0.020595718411359116
0.066080	1787824723254108160	0.0032169939068314585	0.0030049513486101564	0.005039545781683936	0.04238161216361103	9.743949189696941	0.11704611380874451
0.072995	1787824723260108288	0.006509303237629081	-1.0760531318668382e-05	0.0022499174704386144	0.11609503169142196	9.883700902618111	0.16772991131188053
0.078212	1787824723266108160	0.0026803009541872796	0.00036942832887460614	-0.0006259116607842006	0.12995282581362028	9.800844236468143	0.14745610479370852
0.079854	1787824723269108224	-0.00031310021550635795	0.004468205541396223	-0.001391565772899333	0.10897423125825571	9.802786483254186	0.011385551463141904
0.089716	1787824723278108160	0.0013562626811722393	0.0014949024106644885	-0.004932337915937774	-0.031742947556482666	9.836821479307055	0.10911367310288748
0.090563	1787824723278108160	0.003935033368171962	-0.0021027242510432524	-2.6178499952077966e-06	0.14147912170319069	9.88264603513658	0.08036200525088011
0.092618	1787824723281108224	0.0010027881946302354	0.007435079218238513	-0.006392237461046309	0.008954941548413475	9.730289165922699	-0.09588053211534268
0.103760	1787824723293108224	-0.0015250324028769778	-0.002080638851936053	-0.0037400632081385807	0.18005361233087167	9.682892598957615	0.09080928676711439
0.104260	1787824723293108224	0.003301466720709853	0.0014906294323425353	-0.0007939886068317134	0.14529416923697425	9.656298081804623	0.06512206059333853
0.108661	1787824723296108288	-0.00021231856834645667	0.002442285810771597	-0.006423642613895634	0.07383656137578339	9.785330680996118	0.07339366484390096
0.115194	1787824723302108160	0.0028957370559017466	0.003837780969765433	-0.006000727638471542	0.09231829383175755	9.839084620206282	0.08685678350381826
0.119514	1787824723308108032	0.0027988124969356354	0.0018064746915266638	-0.001271374986967102	0.31828239460821534	9.81945370649269	0.1020212769636103
0.129179	1787824723317108224	-0.005046737942735451	-0.0001617288101205328	-0.0023507295197389357	0.10376095375228145	9.625918871728038	0.22412082432993435
0.130565	1787824723320108288	0.0017244188357678025	-0.0052302277626217935	-0.006950109209221301	0.041607387912911756	9.799138427507202	0.10537718697325921
0.139812	1787824723329108224	0.0006408519637134768	0.00028631367044186333	-0.0008343405893625833	0.24480178052699256	9.80606421142884	-0.03278559633689309
0.140312	1787824723329108224	0.0030103912401024226	-0.005252012345162614	-0.003711206890332291	0.08683749601480656	9.821338997949779	0.09619941375849833
0.142367	1787824723329108224	0.0009963538726383133	0.002562275237075518	-0.005331802356495229	0.07530953121163046	9.676293059638125	0.24983054362459076
0.154191	1787824723341108224	0.0011757487161470858	0.003886807144287656	-0.003912451832498311	0.130240985138751	9.799393717058853	0.19504670230420953
0.162729	1787824723350108160	0.0033850605041362545	0.0041230868880033755	-0.00035393503375782346	0.10813379927324036	9.524085094611369	-0.058357878837402184
0.163229	1787824723350108160	0.003722683396483544	-0.00011803149283741822	-0.0016870746686017803	0.03732103772046111	9.851186607568781	-0.03993539678624369
0.168602	1787824723356108288	-0.0009580427292229863	0.0017131309810740289	-0.005694996034510239	0.16449440727205988	9.689746881880573	0.03557765285238104
0.172949	1787824723362108160	0.0034977510007145026	0.0015160306112086954	-0.007080586985891399	0.1079697799097607	9.710646382672154	0.12552619571824733
0.173594	1787824723362108160	0.0014937166765392246	0.0033628575209790866	-0.0030382978885575146	0.02357494476365514	9.806137245632412	0.10994792710769506
0.182298	1787824723371108352	-0.00025983734407392794	0.002545626107399336	-0.0027409683802945657	0.03896780778881637	9.729409599038235	-0.15454135992055723
0.189220	1787824723377108224	-0.003302519826400157	-0.0010224408489783105	0.0011328050285785802	0.10828724215093156	9.79683838076308	0.07508390412564593
0.194104	1787824723383108096	0.008826888592375112	0.0022534090067616863	-0.000738388141531479	-0.051736009633218144	9.937017658872271	-0.00505948934823737
0.194658	1787824723383108096	0.0009180318122777636	0.00549158403902518	0.002799923360702574	0.11939434514948546	9.73759554030255	-0.008754440735460826
0.202323	1787824723389108224	-0.00556845842117302	0.0025968010332271586	-0.0014076322095431853	0.16220897088523017	9.747455992536432	-0.009727384196845788
0.202823	1787824723392108288	-0.001754273608101894	0.000570872846225236	0.00025046907464909476	0.0586047876853757	9.9251389478571	0.04996244844825345
0.213305	1787824723401108224	-0.002741209824360488	0.0015409127972421	0.0010031411833843285	0.10935183652182148	9.651173818048147	0.07847124147954712
0.216712	1787824723404108288	0.0010672671738338143	-0.0027311886326332408	-0.0036709337087905097	-0.06200276461154108	9.865217791491627	-0.015306364037492082
0.222359	1787824723410108160	-0.000448796041361037	-0.004340986514526584	-0.0003924438122993633	0.28422911578598553	9.725325886160979	0.028840188127659983
0.223977	1787824723413108224	0.0008880283222040885	0.003459853623211645	-0.0051809840390107526	0.16414087907662311	9.735243684205985	0.09408808264186691
0.235274	1787824723422108160	0.0013873879742831402	0.0014832159682817503	-0.0032697215922545533	0.19740640081683708	9.814977574838734	0.04957165380470581
0.243035	1787824723431108352	0.0030887847936973416	-0.002179933642883324	0.0020778698526605485	0.017144784031313802	9.794560798714292	0.13293064900496124
0.246431	1787824723434108160	9.273926327227366e-05	0.0046319773437549444	-0.003540371293650018	0.041619898952545524	9.835407544849456	0.13330876031776231
0.251182	1787824723440108288	-0.0022037907387697036	-0.0039802705216313745	-0.005664011294661063	0.010275444044198792	9.750172846503379	0.045574554767783125
0.254015	1787824723443108352	3.3172293156744906e-05	0.003203121482215715	-0.0021414548601206137	0.11143213017357412	9.804969523250474	0.045901097921244624
0.257306	1787824723446108160	0.0006438572295309817	-0.002850270832453444	-0.00020867513358771876	0.07567156019240281	9.941825477455868	0.006144569614666501
0.264840	1787824723452108032	0.003545289158730586	-0.005096054967417934	-0.0004408400207111555	-0.04462496875438127	9.847071325187454	-0.042737701268950934
0.265340	1787824723452108032	-0.002284580349558247	0.006756925948030291	-0.003010675650336254	0.06143608647113186	9.733085141497426	-0.07474382886283876
0.273277	1787824723461108224	0.002589768994587344	0.001316541877620818	0.0005546697797880066	0.10880020245810429	9.773702127854783	-0.06966891569431735
0.278418	1787824723467108352	-0.0036037040095925985	0.0030828175465470167	-0.00503905743803057	-0.011865054424703259	9.75369506240569	-0.024610469509361823
0.278918	1787824723467108352	-0.00011285812903865603	0.0007825606720671233	0.0005387797159794052	0.04075268525614812	9.712617796372811	0.028984433066615956
0.289691	1787824723479108096	0.0022543705450179014	-0.001780484100968911	-0.0013431808193578808	-0.0024729368383828304	9.687283812563066	-0.017159171458965738
0.290920	1787824723479108096	0.005129212428602307	-0.0018765677342755846	5.007019249432965e-05	-0.019187152382134948	9.985408608723992	0.11906651928620407
0.293443	1787824723482108160	0.0025159532683757748	-0.0005092526779113863	-0.004357511590016674	0.047628242437060334	9.832670461640989	0.08099897350698448
0.304739	1787824723494108160	0.005875642713176205	-0.0022076091970081486	-0.0018696858014124475	0.1069465569609975	9.840021856232555	0.0774866959737361
0.306927	1787824723494108160	0.007123208423597121	0.00042895815431750355	-0.005601006582466438	0.14483132786333552	9.661245358877574	0.021638010140742733
0.310769	1787824723500108288	0.002685259354433211	0.0029130940837397788	0.003331720603360484	0.1189815710117857	9.83594602065319	0.10342529318104395
0.321643	1787824723509108224	0.006774796575552076	-0.002516056616825195	-0.0014460489936669596	0.03898309091048625	9.852170622261603	0.06900452033407596
0.322143	1787824723509108224	0.0034482517081811034	0.0012407078883264297	-0.004518410325786697	0.105980737296026	9.727154667162237	-0.03429148967887089
0.323082	1787824723512108032	-0.00023103980593355356	0.0025726954951534615	-0.0034805078102114334	-0.06397933177932871	9.885523596448037	0.07683510336892879
0.334399	1787824723521108224	0.004443231156584765	0.0007010911265064711	-0.0017392571929201995	0.2757093068965718	9.745418071656195	0.0598181841764422
0.339620	1787824723527108096	0.0009676406316527775	-0.0008851087213325869	-0.004505851692006801	0.028073716895876094	9.766251499268254	0.14216341949433714
0.343686	1787824723533108224	0.0051950871235746255	-0.0013806186105772967	-0.004020235615607856	0.1355779773768312	9.793394381298201	0.02710989886065862
0.348620	1787824723536108288	0.00215778196625031	0.00639943926591318	0.0018164835865943588	-0.09658721924133615	9.74815455649811	0.08800211871981248
0.349810	1787824723539108352	-0.005723991359148086	0.0032430621996508016	-0.005232698545238938	0.07508461410161739	9.777750286687793	0.08078519338374346
0.354119	1787824723542108416	0.0024885405074730332	0.0014603917038348612	-0.002796309842150877	-0.07210336604153861	9.705187772238181	0.08419218944920993
0.358832	1787824723548108032	0.0033874694312237465	0.0033754404706634517	-0.005697921147691043	0.12107971487367614	9.808793770598998	-0.07499097453174268
0.365771	1787824723554108160	0.0033886463649365718	0.0005648368784894207	0.001715597711816281	0.11383909886464998	9.716994984645268	-0.08072263051114589
0.377344	1787824723566108160	-0.001044837919696525	0.006358801480085378	-0.0027293075424524253	0.10642600679096247	9.737728310190349	0.10316406002793699
0.380807	1787824723569108224	0.006859335418242983	0.0007806409104960352	0.001753174618138586	0.13255817506973988	9.849460528017799	0.08724261511230016
0.385849	1787824723575108352	0.004750558234531467	0.0023860991618767013	-0.006918454180118595	-0.03465723221559668	9.767382422086992	-0.05154084810692635
0.388627	1787824723578108416	-0.0030248711505818137	7.981864291840097e-05	-0.0025746165739592933	0.04327244244878543	9.831632627238983	0.08738707199006704
0.395237	1787824723584108032	0.0034423794376603214	-0.0002570369571553259	-0.0030041403546704802	0.017868072864561393	9.616949458942626	0.014503143577909421
0.396973	1787824723584108032	0.006600343720489789	0.006494859160985436	-0.0032661852029814095	0.02126361471208705	9.65791937787051	-0.04274539211624753
0.400283	1787824723587108096	0.00497424124660051	0.00018778326220297934	-0.0001372487726395001	0.1638445407163131	9.676489929596713	0.1432961433150064
0.406081	1787824723593108224	0.0018060810469960643	0.0025023500575696547	-0.002715046607103807	0.1304769563780765	9.656817837251165	0.06988167331865319
0.413050	1787824723602108160	-0.001326532077264346	0.005275807635307205	-0.00765094179926456	0.13992208643076376	9.905628002748154	0.17774859648696634
0.417512	1787824723605108224	-0.0030646337475080457	-0.0008089857995054646	-0.004890604310460435	0.10461844392743622	9.831430386864783	0.1065808209926021
0.420300	1787824723608108288	-5.974979774725801e-05	-0.00019233414330399232	-0.003056197748573072	0.2074312669310417	9.664910387257569	-0.07152685549764246
0.430835	1787824723620108032	0.003979860424886104	-0.00019759472597183467	-0.0044678476594277716	0.1267314259753396	9.814211130113138	0.04838276877043693
0.431786	1787824723620108032	-0.004271098095892984	0.0017900795980659943	-0.003289594069434216	0.09263223106214058	9.903163809677343	0.006030285340094973
0.433629	1787824723623108096	2.3105457314865057e-05	-0.0008056475300017127	-0.005592592528638345	0.20457367363507592	9.703217212674353	0.11933297928584674
0.440980	1787824723629108224	0.0034575809036840382	0.008575316837542023	-0.0035449669998770927	0.06555784438280404	9.796610928085054	0.09233913980788003
0.442789	1787824723632108288	-0.002428860527344665	-0.0014244517567558103	-0.003946456752490982	0.038258157773020926	9.784297676719119	-0.11439843560281454
0.458251	1787824723647108352	-0.0017775789661112992	-0.0016483333983701443	-0.005214069271784449	0.041213765508987824	9.736350214185787	-0.08340174921496865
0.459749	1787824723647108352	0.002440058302180962	-0.004499080959110648	0.00019840764153658237	0.10720564590911029	9.790538201730032	0.2283927732338702
0.468439	1787824723656108032	-0.004140162307130757	-0.0020455387206840207	-0.005284766197021535	0.10715026730917333	9.685019945993908	0.03536449918504432
0.468939	1787824723656108032	-0.0006340287119101379	0.005045690272054823	0.0006411662524615047	0.07263564238543717	9.735289106126817	0.014438752654141504
0.474209	1787824723662108160	-0.0010160533744324562	0.0008496192130893188	-0.001779285511621929	0.0006987425180977058	9.78754904546076	0.1300413009258788
0.475012	1787824723662108160	0.005743904455454679	0.0006934606585265078	0.0011625363042929407	0.16946205230346256	9.785772900859214	0.055596624106644676
0.485254	1787824723674108160	0.0003721026220344732	0.00279608538298977	-0.0067136634835078795	0.12526505970325405	9.776635037492742	0.08394135811435494
0.488555	1787824723677108224	0.00044747214292211834	0.0015341335937031383	-0.0019911365533506753	0.044566216560024026	9.911012923434052	0.18492360860558926
0.496823	1787824723686108160	-0.001681015228154229	0.0031113117826762305	-0.0005530380690778609	0.10527576491290389	9.901579009994478	0.09889371662716298
0.497323	1787824723686108160	-0.00278572897035265	-0.00023759835731515977	-0.0018157551710751567	0.18069128134133275	9.758022957063973	0.12929882998962555
0.501878	1787824723689108224	-0.004527765519492126	0.0010693142846749458	-0.003665470602605194	0.22203687393609461	9.878148115013415	0.18874901492135776
0.507240	1787824723695108096	0.00574314464579638	0.007137513006933285	-0.0023441046556164653	0.15006784624065658	9.735849725782721	0.018995621772549626
0.510926	1787824723698108160	0.0015833220940082255	0.0026836155582565103	-0.0016165761728798205	0.045603094753810886	9.710742712848425	0.16912586170484833
0.512231	1787824723701108224	-0.0007556805783746916	8.599385471013592e-05	-0.00481210095862545	0.03653719583389769	9.624751649960594	0.08779167677235539
0.522514	1787824723710108160	0.0007092292070975169	0.004497048771074975	-0.0018493879940627911	0.1799467889145228	9.674480493398447	0.09476251624907216
0.524315	1787824723713108224	0.004608363057703581	-0.0025187060909287657	-0.007817012576898656	0.09244881085781662	9.796908598263547	0.14654632860114658
0.529392	1787824723716108288	0.0005886560843099941	-0.004613516700584352	0.00036081077716529006	0.12007653209741614	10.009937866545952	-0.0005164286539331257
0.537124	1787824723725108224	0.005171800642789528	-0.002220501809277779	0.0007187497297192254	0.1324518338357842	9.80976827504519	0.1818691155302508
0.542046	1787824723731108096	-0.0027931340731035675	0.001413531074039882	-0.0009507524807241352	0.0988878415110904	9.75182376910298	0.04645642831300391
0.542911	1787824723731108096	0.0005223366076837167	-0.0009061086544944739	0.0032293278585921424	0.14215977480811662	9.808157239803412	0.1331265848863453
0.552013	1787824723740108288	0.0032373576750301296	0.0022660771976577656	-0.0019991721945419095	-0.032081640507413536	9.804074302278885	-0.001622789285959738
0.558621	1787824723746108416	0.01050633750313755	0.00648104121351291	-0.004248455608896905	0.1857768609853755	9.88530634366411	0.023512806897360412
0.566114	1787824723755108096	-0.0033950898889810763	0.0006999645940688542	-0.005871362957000947	0.2185778798474896	9.895773382013939	-0.011046547779013788
0.569153	1787824723758108160	0.0003989675066756349	0.004186602027999128	0.0032069578415431007	0.0927358833469681	9.790331202851528	0.09456789856184206
0.571295	1787824723758108160	-0.0002993361273089972	0.007049454370052789	-0.0057927632009527105	0.13293260247358402	9.548258091766263	0.19232016457438508
0.573173	1787824723761108224	0.0061257447816993145	0.0022030197828677343	-0.0004313680293808642	0.07668786660444885	9.71356595536008	-0.04725649326325114
0.579333	1787824723767108096	0.001365721979279873	-0.00028031089432348655	-0.005968020732370511	0.21180349628204642	9.82631118257252	0.15532758364907215
0.586102	1787824723773108224	0.0021231565000827454	0.0033590884352918686	-0.008061431772033108	-0.038867957772522305	9.860192969970866	-0.06400558648848251
0.593360	1787824723782108416	-0.000678946950477801	0.005252513652183697	-0.004214494312534304	0.038406077881385794	9.7523675126671	-0.02147389010351234
0.593860	1787824723782108416	-0.0017636371070460914	0.0030681386865873015	-0.003074005161320916	-0.03591063641645984	9.71689983682799	0.12578556128637763
0.602455	1787824723791108096	0.0028492624903090854	0.004084863256144069	0.00045927728916096136	0.04277642322591668	9.746091091079277	0.051084186937126665
0.605052	1787824723794108160	0.007620185743458472	0.0026455922924918393	0.0029253931302933318	0.02601137955696741	9.739017920480359	0.1424364179299688
0.614396	1787824723803108096	-0.002994735590151824	0.004783193298217	-0.0036186395318964174	0.05645856792523324	9.806786930987478	0.05571475667088721
0.614896	1787824723803108096	-0.0005452022721560131	-0.001191600855386436	-0.005791899521666117	0.17837870815016402	9.772622625026218	0.02220480646491436
0.626195	1787824723815108352	0.0038563815802173367	0.0019906991393946957	-0.0024269569404988564	0.14277557088588444	9.78322103866898	-0.011094755088857863
0.629621	1787824723818108416	-0.003498468270380764	0.0025956171685041366	0.0034230139125173984	-0.028439672916591364	9.866059788544662	0.1003602268102364
0.633959	1787824723821108224	0.0046127485983236665	-0.0020561626072102815	-0.005152450038446782	0.02772155809099188	9.71985309793806	-0.0581391167133772
0.641322	1787824723830108160	0.00250891709528207	-0.0020200653856000715	0.003802986986908179	0.10531051136306784	9.638661197577141	-0.034341343365013655
0.645256	1787824723833108224	0.0030322418099294843	0.002834719125112934	-0.004790134376393131	0.16094488733086568	9.653712111895132	-0.08570993596109558
0.649233	1787824723836108288	0.002784340838151126	-0.003760415731600486	-0.003072866528731524	0.11477140284264169	9.717498702122677	-0.0879362177096361
0.655890	1787824723845108224	0.0025192091616313625	0.0024959236363653655	-0.009937154094868814	-0.05737292735529549	9.656403190047945	0.10224155538815569
0.664255	1787824723851108352	0.003919058502588538	0.005784372813352164	-0.005282090226539647	0.0542809569954783	9.703644237744635	0.011492797721057678
0.664755	1787824723854108160	-0.0018064541572176478	-0.0015558020759933672	-0.008766659436135239	0.18695737739174922	9.73330950687195	0.10790078063394495
0.671803	1787824723860108032	0.0012264322923880983	0.0006397829761324535	-0.006519845253003557	0.0029102706851152557	9.590422755298587	0.05829721655089238
0.672303	1787824723860108032	0.0021893153902396937	-0.0014552376120602465	-0.0011079402954448005	0.0580745555883575	9.71937345538615	0.062113243006360994
0.682111	1787824723869108224	-0.0002760160461653099	-0.003948942669581151	0.002663879581057446	0.27633466151276204	9.820056649896896	0.1336285884403921
0.688106	1787824723875108352	-0.0004378270000452119	-0.00024589680778716204	0.0015867529392823584	0.09937210691785836	9.950466201554695	0.1715079479696731
0.690933	1787824723878108160	0.0018315164106257624	0.0030488036727860978	-0.001343643951904507	0.1903749804066637	9.689083045521306	0.09070089673556661
0.694058	1787824723881108224	0.002905721949929904	0.008800802967805785	0.002800986992791082	0.2175987363181504	9.75317286086543	0.024352574520981222
0.694558	1787824723884108288	-0.00034601238386910657	0.0019395344701855595	-0.0017555235676551268	0.09062921828360024	9.625506299855887	-0.0590217775295451
0.704732	1787824723893108224	0.0006013077441615255	0.004640503085928101	0.002003121929382473	0.09449633801974455	9.895256252202289	0.07992610096624006
0.707923	1787824723896108032	-0.004040186648586425	0.00015650150965668542	0.002517782090488155	0.20503062642421213	9.69876169278322	0.0637048961491985
0.714615	1787824723902108160	-0.0012984283910053586	0.0016998558223134807	0.007687123329972397	0.14490108630757131	9.774815680778913	-0.04452585396506179
0.721109	1787824723908108288	0.0024081262757401347	0.010078100771332695	0.002409457051655021	-0.009104169897247522	9.843781725110082	0.06292079888669594
0.725471	1787824723914108160	0.0016988799649705283	0.0019191355740262178	-0.003173929946157379	0.038940211740528516	9.841493167028425	0.14372290811468308
0.731787	1787824723920108288	0.00242179962812649	0.0036820879537354735	-0.000440801914898901	0.21809180897643382	9.771316784347102	0.014422693986287156
0.732287	1787824723920108288	0.002158561547492146	-0.003394398694759388	-0.001857747534986048	0.047840310033746454	9.827194591803357	0.0890035206920318
0.734242	1787824723923108096	0.0006593212831058272	-0.000573374033113647	-0.00020170051213409942	0.035791191868851886	9.646928152128712	0.1062055174383884
0.736422	1787824723923108096	-0.0005711578346180948	0.0018678929507364504	-0.006490989921353059	0.05926254802032187	9.774153948854888	0.10698404888737509
0.750033	1787824723938108160	0.0014372920079025978	0.0004192169126448638	0.005095779558491196	0.12379845211302032	9.870692004563697	-0.06911349434647712
0.752336	1787824723941108224	0.0006821886420049301	-0.002024506956306498	-0.0062733654673576104	0.16427954026919017	9.720602499846931	0.09489561434200282
0.762928	1787824723950108416	0.0002951823263097303	0.000883807772331191	-0.004752330366417989	0.0625931689866448	9.774046601630257	0.1508616585249667
0.763428	1787824723950108416	0.0038671835320362724	0.006011328891813076	1.2188078241201928e-05	0.08966317354377384	9.846257406892184	-0.0013247009566597842
0.769440	1787824723956108032	-0.0033915277052481755	0.0011114118904603136	-0.005206331375370773	-0.0032272287203253466	9.993144436729478	0.06618770062177884
0.772705	1787824723962108160	6.731259670552975e-05	0.0003839685013952072	-0.003068417581353395	0.1398240174066142	9.843939156836765	0.13542769929457474
0.776763	1787824723965108224	0.0012690503708785265	-0.00045756289268623473	-0.0015266466148000618	0.017701118775321108	9.59189461277013	-0.0015635319936481672
0.785135	1787824723974108160	-0.0023216975942336833	-0.000689265035759904	-0.0009043663497183114	0.06309755281530008	9.760210801559559	0.04373797261389975
0.788245	1787824723977108224	-0.0009637888042000522	0.0024010521338321054	0.0002038543317019071	0.15940147909516392	9.801419897227298	0.07522371837150385
0.788745	1787824723977108224	0.0026942280859431145	0.0003216381894301356	-0.003658829273555153	0.1835734466497589	9.681077126332973	0.2223054457107441
0.801982	1787824723989108224	0.0009025848684732601	0.0016993741747424196	-0.002952803340518725	0.22866343831187588	9.797721294373014	0.07951729359792306
0.802482	1787824723989108224	0.003369049145580407	0.0008531852611057152	0.00020538110871048216	0.18366029822485577	9.718176090304539	0.12047550136680624
0.808689	1787824723998108160	0.0007663308497852753	0.011468370288388286	-0.0017188875057053458	0.07921784124388465	9.844514713354874	0.0010529759809092439
0.812896	1787824724001108224	0.0026903009194937195	-0.000755674424012919	-0.003895293251173387	0.14002488428509582	9.813824712719603	-0.024951737396897173
0.820150	1787824724007108096	0.0012938471656267633	0.002296030831761416	-0.00257510651416424	0.17439570401625762	9.837915089837706	-0.0029105065481072924
0.821660	1787824724010108160	0.0010553400841675342	0.004333143851746952	0.004183555075190373	0.14564689620626098	9.770594898135743	-0.03913702442677641
0.828887	1787824724016108288	0.002947498315043859	0.0044175967240041615	-0.005308505778968769	0.11404166570823196	9.70279983843412	0.08803855579553121
0.830449	1787824724019108352	0.005779870900713512	0.0028791841399203773	-0.0033225759529017605	-0.026525487453250715	9.824888313645019	0.06624877718596958
0.839310	1787824724028108032	0.0035171342171459027	0.003914370897591748	-0.008513959646442738	0.11039834381564753	9.941729190449825	0.07772919479671414
0.842034	1787824724031108096	-0.003173815026770171	0.000750342240660686	-0.0031972554724237047	-0.039746181077465845	9.637602815392812	0.009134904160671482
0.849275	1787824724037108224	-0.001043763616301535	-0.0039050240875348695	-0.0028351840374400907	0.10839307276032456	9.740258574150449	-0.01669386432867384
0.851217	1787824724040108288	0.0007177637037202699	0.00036143389265517654	-0.005820636136655795	0.12863967067321036	9.714343012847502	0.1809399135159975
0.859939	1787824724049108224	-0.00035770211252107134	0.0022520399490436353	-0.0045234444195693235	0.10402173886011262	9.661417773567297	0.056033088783264136
0.865559	1787824724055108352	0.001472366757539418	0.00023946739599167732	0.00023374587296576136	0.013433045679854518	9.674199102684291	0.20791990044267894
0.868468	1787824724055108352	-0.0004208705113264101	0.0060228817234681585	0.0032611702032151434	0.15053055713575236	9.853880496001352	0.12095456238938189
0.871773	1787824724061108224	-0.0035524437009164193	0.00032392757527187213	0.0008328838003153895	0.11642412566998277	9.802053374542348	0.13407597430413998
0.878596	1787824724067108096	0.0044224080551134495	0.0025008696281170707	-0.0014374590835818356	0.061382173910783294	9.789652861037062	-0.0094325466064792
0.881750	1787824724070108160	-0.00015733731793016593	0.000961825608560619	0.003302655580910691	-0.02843535194643509	9.914101837597915	-0.030509572185565298
0.892485	1787824724079108352	-0.0033085238249078294	-0.0023378330429905635	-0.004621097635338853	0.035045807812570065	9.654569836568905	0.08391295390478458
0.892985	1787824724082108160	0.0022085977717223116	0.0005708260263024528	-0.002358649729704903	-0.01697852287721474	9.72962972317517	-0.027706959928569967
0.900174	1787824724088108288	0.0027477430602239907	-0.0017648843406925592	-0.00530692130769595	0.05402607091550863	9.597959378929467	-0.04079480096274467
0.905780	1787824724094108160	0.002196806274910393	0.0006158343706152731	-0.0005385889992102844	0.007108444015512697	9.657470255847358	0.09565528755179455
0.906280	1787824724094108160	-0.0011589372215256035	-0.0018549333526758885	-0.0035186075090698913	-0.020356228969873318	9.65249798149922	-0.01293743433950344
0.912204	1787824724100108032	-0.0018053615813071126	-0.0022536998771768837	-0.0009179226295882275	0.19412481020845715	9.730417381496274	0.12744017091965204
0.913537	1787824724103108096	-0.0005043034815425504	-0.0009325055127032932	-0.0011793587277818046	-0.11133081191847513	9.616070685147163	-0.000820685599313406
0.926121	1787824724115108352	0.003242940102241701	-0.0027113932524939857	-0.0020690983191027253	0.14800842958261515	9.708238543854975	0.10091977817174455
0.926621	1787824724115108352	-0.00511102152516814	0.0013560850938704736	0.0006963342723100103	0.16047066359477424	9.882024992658891	-0.015040284032967727
0.935995	1787824724124108288	0.0024155368235681896	-0.0025333609784245177	-0.001417960177699457	0.08098126447068213	9.724442834621103	-0.011517209799737343
0.936495	1787824724124108288	0.001405593843624224	0.0030163097078996374	-0.0005174509309641324	0.07718314115261722	9.985233230109412	0.03722068499505083
0.942160	1787824724130108160	-4.4465081411318485e-05	0.00082770675096739	-0.002528854978287061	0.08674660058082151	9.66333205535902	-0.026071961038939613
0.945286	1787824724133108224	0.00779746833339136	0.0009520665497865554	-0.0038306612210517593	0.05424251333918713	9.771738094743855	0.012879784581498266
0.950146	1787824724139108096	0.0002741382576794899	-0.00033021428791044755	-0.0032503780198861578	0.21800789712784593	9.833981611708268	-0.05090282595615951
0.954547	1787824724142108160	0.000978185346514736	-0.0009157176323386386	-0.008985950812350513	0.17760914708394074	10.010550991422608	-0.01128164641580695
0.962334	1787824724151108352	0.0002764904552069687	-0.0005597324045741921	-0.002041496986945822	0.04994222805443635	9.870488478658148	-0.025639881463675334
0.969620	1787824724157108224	0.003387007558772485	-0.0006667036235161305	-0.0030366444488863593	0.12810524337141488	9.798534444953969	0.1878606389860308
0.974517	1787824724163108096	0.000910606191339053	0.0020165911432433086	-0.001531589964884044	0.04649480929666292	9.761903400576143	0.03953047204328513
0.976875	1787824724166108160	-0.0012588694625342498	-2.1341139870138066e-05	-0.0013200575933391455	0.07352076780529437	9.787112719268936	0.2162717097295465
0.983542	1787824724172108288	0.0009825020758383477	0.0022903995186889115	-0.002058062287817956	0.06958902141510377	9.652302935480469	0.14740317491616448
0.988808	1787824724178108160	-0.0006852201191124626	0.0004971607691542706	0.000467705210548737	0.013594642295589845	9.712108464707454	-0.024050147320995897
0.994809	1787824724184108288	0.002687768821109232	-0.0014857684667451076	-0.011406081736919647	0.11792723844866913	9.840203945821386	0.020708828867994175
1.000530	1787824724190108416	0.001978877353050114	-0.004503155522633654	-0.0001333933210576118	0.17098624824545158	9.740939088994343	0.13069046148457603
1.003376	1787824724190108416	0.00667496165327574	0.0021032132476562406	0.003663908954880366	0.0836709293239751	9.752105135710893	-0.11890129135462346
1.004882	1787824724193108224	0.002909234125761941	0.003945629866845589	-0.006974766417902227	0.034019242610483225	9.81199961567496	0.04089916813385118
1.010221	1787824724199108096	-6.68487572072253e-05	0.0005631232997534525	-0.0015974340363190992	0.09394698383889957	9.777687635429745	-0.02962141794936002
1.016219	1787824724205108224	0.0007130524447917703	0.002496860693523858	-0.003500479260798258	0.011539539115347084	9.869573492119455	-0.04313679084065394
1.022397	1787824724211108096	0.0018280453669110275	0.008223041016608515	-0.002688864196269426	-0.06428767015330714	9.884215291038124	0.06509929135063361
1.026244	1787824724214108160	0.0023795882685336968	0.0013787491660631709	-0.004951497740171797	0.25524339226313264	9.723042904087006	-0.06724666918979529
1.034142	1787824724223108352	0.002924596154439958	-0.0005237821162787561	-0.0034679361748576765	0.09793925584924369	9.769037847537305	0.012326316964720044
1.034642	1787824724223108352	-0.0008383371873102708	0.0025577078396383326	0.002929767073809295	-0.029452933623276074	9.753129853322594	0.09768427661774895
1.043666	1787824724232108032	-0.0017762369671314331	0.005386049690279458	-0.004268265052384193	-0.10891774357861954	9.77757526940475	0.02292546866804852
1.047441	1787824724235108096	0.0016237458354804927	0.0023696086860238285	0.00580070750491888	0.03537425854960696	9.85791154272126	0.02553532137903589
1.051545	1787824724241108224	0.0010435537501594229	-0.0005681229659317483	0.001962425896055812	0.15053808447708011	9.674458298992514	-0.06491769974391391
1.053061	1787824724241108224	0.001223683236522501	0.003571926541099792	-0.009970617504642041	0.10238425971120398	9.821798032917302	-0.05057248052228692
1.068199	1787824724256108288	0.0006884258777643771	0.0061442186945650686	-0.004390149724459263	0.09397102946016944	9.71640724869793	0.03848999302700927
1.068699	1787824724256108288	-0.0031649275344481044	0.0014240118153809646	-0.005321569197395513	0.11723498585697335	9.871823965692888	0.05508176486882839
1.072473	1787824724259108352	0.004571781428135725	0.0028244167865577817	0.000944644654837087	0.11173351776148564	9.657314162239915	0.07341896550968388
1.080394	1787824724268108032	0.004842711042713125	0.0011466605415903933	-0.00033540769059952355	-0.01922995016733992	9.891515209038525	-0.056219725830077685
1.080894	1787824724268108032	-0.00020966965864936985	0.0073543572430479634	-0.000605205817925136	0.09336249829347928	9.834732351791475	0.10607298644053344
1.090445	1787824724277108224	0.00010948920281314924	0.0027862678198805925	-0.001124740053292287	0.07928046888053357	9.817142241809549	0.10270335934662003
1.093434	1787824724280108288	-0.0003431074235651652	0.003447881203297913	-0.0053952611733619465	0.22833616147698133	9.81875951226811	0.013059968450929653
1.094047	1787824724283108352	0.000903831586399603	0.0020267551921141526	0.0028967158279015618	0.08100351078020061	9.806519471309896	-0.012389544456702777
1.101682	1787824724289108224	0.002682341255714772	0.0003890589449026718	-0.0044362039160069	0.07549736311772508	9.884178802464858	0.10909767116931038
1.108560	1787824724298108160	0.002610834560776364	0.002706521967421039	0.0018921152027495036	-0.023621487613218438	9.786920496090111	0.0636159107885394
1.111639	1787824724301108224	-0.0028421610194461866	-0.001227737379779742	-0.004130009576710784	0.006539774049275911	9.778462726698672	-0.1386406515407104
1.122526	1787824724310108160	0.0017407768650683675	0.0006762495218145901	-0.0003244720992580611	0.019287241767485648	9.889686926198582	-0.1770455550157977
1.123026	1787824724310108160	0.003678317051434927	0.004669277532448224	-0.0060513734533085214	0.14476723849087575	9.705879097260816	0.0470236622849302
1.129139	1787824724316108288	-5.9203379112923856e-05	-2.168312366486588e-05	-4.100659735944631e-05	0.09278129058869485	9.83591468315892	0.1692504635868321
1.133735	1787824724322108160	0.0006787553406688918	5.2736366743933675e-05	-0.003059498414026385	0.10487701060383074	9.794699060859575	-0.0417048436788237
1.134235	1787824724322108160	0.007778286362393663	0.005336296842778604	0.00033427337327405094	0.045669495054786825	9.758429545445962	0.09250224918931133
1.149044	1787824724337108224	0.00394809929513406	0.004037475330276095	-0.005964113812020541	0.05460124486515916	9.72895571565357	-0.07403700623232243
1.151145	1787824724340108032	-0.0015468524647676632	0.0008638808719424225	-0.0014257397056855168	0.13821400021207186	9.816457853208563	0.058395535286629247
1.151645	1787824724340108032	-0.002152334950052368	0.007829271791641128	-0.006565927051230442	0.08432566099919636	9.687610314823736	-0.12930453662713887
1.153415	1787824724340108032	0.0017309985571479325	0.003701982863809885	0.0012569051166336771	0.0019556909576645895	9.819719892786823	-0.003077416463476817
1.165819	1787824724355108352	-0.0011369243888166146	0.0019535263293830253	-0.0062887660697355345	0.054790944125426476	9.77332981689579	-0.029138339520755695
1.169441	1787824724358108160	0.0023597585628754173	0.004781076544004113	0.0007305985150902776	0.15806909626708465	9.79791201889284	-0.054996293978238284
1.172114	1787824724361108224	0.0009772400197815415	0.0023338230793891984	-0.004742840132451243	0.04289643808458578	9.928921649924403	0.22163608931382514
1.185020	1787824724373108224	-0.0023796373284467745	0.0032344959304228312	-0.0049681706412038305	0.0850947510301943	9.693380218612138	0.11425429997386537
1.185520	1787824724373108224	-0.0035271062006923502	0.001644449549454484	-0.01118192276044019	0.08493824556158683	9.767795968828322	-0.05767942671999203
1.186165	1787824724373108224	-0.0006266890401594308	-0.001436846931052864	-0.007427299766221265	0.08307397900129357	9.69680829588064	0.16736096683740176
1.196811	1787824724385108224	0.006052829632097111	0.00011700094181998064	0.002978825792498175	-0.015097204111634722	9.834354243923173	0.10350110726336433
1.197311	1787824724385108224	-0.0014337559101467155	0.00609350622886886	-0.00286644151524416	0.11279310440351076	9.863138124019368	-0.05519573780101261
1.200967	1787824724388108288	0.0022810465006132333	-0.0007004256945513543	-0.003921422036502452	0.1222563452364549	9.80510824969113	-0.001352761303696201
1.208725	1787824724397108224	0.00041682341247433364	0.00017902102907774707	-0.002352158788966166	0.1766664381588576	9.768311782469489	-0.004684870879234446
1.211417	1787824724400108032	-0.000795573176124166	-0.0010389164180358871	-0.007630882115285318	0.10134322768010107	9.807911055307052	0.03148528046835222
1.217481	1787824724406108160	-0.0003564945239535422	0.003361263046624775	-0.008264367279639272	-0.03261933665265003	9.787840404016807	-0.00365298551522473
1.221743	1787824724409108224	0.00309477586671028	0.0020151153173761996	-0.0008232099477522591	0.13913800757658296	9.656721630842874	0.16454825490533606
1.230108	1787824724418108160	0.008166194582073677	0.0017172850043244935	-0.0050273515078068645	0.08383737483233947	9.795373194637357	0.20434751569481494
1.237149	1787824724424108288	0.0032078714995623977	0.0018667038830130164	-0.003410636911780819	-0.05302176279612737	9.922051299969018	-0.02086415475451137
1.238786	1787824724427108352	0.004781247074131889	-0.0017687136864697394	-0.0009653390182814195	0.103997450018923	9.788630115058814	0.015429835540006247
1.240006	1787824724427108352	0.0016121473050574378	0.0005171183370822317	-0.00027218909102522115	0.018853720357564455	9.566466991135139	0.09766187936973257
1.243398	1787824724430108416	0.0028260515236497776	-0.00036725469021152077	-0.007451660180817725	0.004565263138186025	9.900385303663931	0.05565473157626752
1.253167	1787824724442108160	0.0009134063905138917	0.0034502613269705913	-0.006882257832094583	0.2349502099227309	9.752311757208563	0.01640430169645468
1.258130	1787824724445108224	0.003750661975349201	0.004990291831047808	-0.001232895624660732	-0.07060124801300369	9.847648300005513	0.09097229600068354
1.264720	1787824724454108160	-0.0001865085432853717	-0.0026248465595704526	-0.0032195750638343195	0.010871840634675878	9.776878073277551	-0.05262785301377824
1.268120	1787824724457108224	0.0006515846313849519	0.0013060901609802504	-0.00031555269119006805	0.10140831891240941	9.901559571691514	0.15152819472837442
1.268620	1787824724457108224	0.002714822978088273	0.00026787267795501347	-0.0037588974742179997	0.09763147360609856	9.788031304700025	-0.04253414632365723
1.277415	1787824724466108416	0.00015996116974465444	-0.0019252793038738005	0.001711151978221327	0.14253501053503212	9.78253247140071	-0.02887003317887241
1.281164	1787824724469108224	0.0008470723025059488	0.006932581692447255	-0.002443034627645113	0.07517281812014265	9.731085575660199	0.007458012913667999
1.287323	1787824724475108096	0.0062601412061744615	0.0015830188156815235	-0.001677263175700826	0.1412696576737804	9.68472837031322	-0.12404012681350327
1.292349	1787824724481108224	0.005139217319461036	0.0010804389108891239	-0.005148921823988722	0.06326760797723197	9.74479406168856	0.07201123646401393
1.298741	1787824724487108352	-0.00292077765281465	0.0027696717913435094	-0.004821697438040902	0.14838018268529385	9.836821343859564	0.09188645231941249
1.305492	1787824724493108224	0.006835985745335758	-0.001073041932704614	-0.0012742276284592776	0.19457365905404478	9.805352980252193	0.19289521685481625
1.310427	1787824724499108352	0.0019203857175486394	-0.0020452631369071183	-0.002210682349814513	0.1738217422679535	9.970571193343934	0.03550634165371249
1.313581	1787824724502108160	-0.001113700889101248	0.002487187863319051	-0.0018319018560857831	0.14445373580652562	9.6494375383296	0.03149355135416733
1.314081	1787824724502108160	0.004685286321408318	-0.005504458071318689	-0.0007668298214522952	0.11944317795958381	9.83753512744446	0.13124414005194818
1.323728	1787824724511108096	-0.002368303030395421	0.002452648721204229	-0.004604887787411064	0.04428176814260283	9.788597702779834	0.030651536616097617
1.326417	1787824724514108160	-0.001324713234256949	0.004112427785483671	0.002837037938067268	0.101776438257202	9.710864733928458	-0.057994585212527136
1.339344	1787824724526108160	0.004407123066504377	0.0017927360150460224	-0.00436887521652341	0.15018909846589978	9.755942477081968	-0.12659332820767363
1.339844	1787824724529108224	0.00370137850978329	-0.0010394692607220972	-0.0017733153187472293	0.14762640092625456	9.746702495759413	0.03898224834952993
1.340344	1787824724529108224	0.0017197573779335134	0.003165055469255134	0.002972710683129683	0.17201825296061696	9.720437425213484	-0.02893968141372953
1.349237	1787824724538108160	0.0020532395373545637	0.00113390975937481	-0.0021788587092499323	-0.05589856692220726	9.761578910219951	0.10743099708081755
1.356475	1787824724544108032	0.001310973168537967	0.004347172458615748	0.0005567146691192091	0.10100960756897925	9.71778941533092	0.11238576518129381
1.356975	1787824724544108032	0.005382892405580829	8.857601180510652e-05	-0.003885882606928402	0.15896890290452073	9.722655675034966	-0.08488264986909322
1.364119	1787824724553108224	0.0031570043576052958	-0.0015203123678200784	-0.0020562082201978503	0.19830218479955597	9.714145709065482	0.018386739843557112
1.368084	1787824724556108288	0.0021848541873742194	-0.002032006465603405	-0.003507171984167337	0.07623795058482542	9.847703226761592	-0.10497975353225145
1.376246	1787824724565108224	0.002266766685124968	0.0022959188896135106	-0.0008814908293308119	-0.10941910822407405	9.72197304592985	0.14206628136714158
1.376746	1787824724565108224	0.003155315098058453	0.004865845257322684	0.0006040207871157591	0.06972407077711834	9.842622904165307	0.0032670167902022016
1.385355	1787824724574108160	0.002099817732649766	0.0060692079823784825	-0.0038707661520629762	0.04905814833554703	9.648905243273203	-0.059459748872912194
1.385855	1787824724574108160	-0.0012689112260213585	-0.002799896736908532	0.0030389424657369765	0.002832127465262981	9.813172766339765	-0.07813214163627012
1.398352	1787824724586108160	0.0017934470102920733	0.0027211955529865893	0.0005969365872092857	0.0955854022677642	9.791537829744906	0.1277044018629774
1.403696	1787824724592108288	0.0034211195329747783	0.00542242648190319	-0.005527617253846774	0.1243720151971149	9.680391365245267	0.18225470200154242
1.404196	1787824724592108288	0.008171013270781024	0.0012392804547778676	-0.0015513864166255345	0.13196775572421274	9.651389074849508	0.038158927848023765
1.406612	1787824724595108352	0.000604467954733753	-0.00045212137443590957	-0.004622722256132836	-0.08838371623300513	9.830784915966968	0.05708669127863653
1.409475	1787824724598108416	0.0007018838336403509	-0.0023907352526952004	-0.002583994274581597	0.0032672922536907123	9.712782770367054	0.07201249720074931
1.422033	1787824724610108160	0.002177486799009205	0.003972694260231726	-0.0010857986404441023	0.074284901178428	9.694636506267729	0.08188874878512453
1.422674	1787824724610108160	-0.0008075746244963372	-0.0018916203202645903	-0.0008841511400961817	0.0464310401270895	9.756650271677653	0.22583191996826807
1.428442	1787824724616108288	-0.0043060342003321105	0.0015871093290996737	-0.00025076397107094	-0.031026794036275743	9.711532303032383	0.0545178280775751
1.431453	1787824724619108096	-0.0025812150217523703	0.002049964680868894	-0.004797147988805765	0.09883111250317464	9.776084169113197	0.06192902162006593
1.440270	1787824724628108288	0.0016653696318124278	0.0011699875730302358	0.0010481304307413948	-0.002164689173144378	9.756883647691396	0.08293074378338541
1.444273	1787824724631108352	-0.0026098071243062034	0.0036377410981730984	0.005512376430372196	-0.009598735360333878	9.84354069832084	-0.06286793231278995
1.451778	1787824724640108032	-0.0012258605021320678	0.00165056944663295	-0.00031580142637881387	-0.035120681940826064	9.731318559080039	0.031771117946925234
1.456426	1787824724643108096	-0.00013537320907830528	0.0005503791397289425	-0.004472933928455436	0.18754249933298212	9.738256745247659	0.007750718645367253
1.456926	1787824724646108160	-0.0008142694461760682	0.008540324397899495	-0.0029819986338732248	0.13696473080448252	9.816717470324882	0.07668389327887211
1.464838	1787824724652108288	0.0070755793460464565	0.009154665175786735	-0.004283402496259635	0.07142184495554103	9.71779932049317	-0.033665597061915124
1.467784	1787824724655108096	0.004056968978478471	-0.0003237653758077143	-0.0039144068068697815	0.007323102198958799	9.719759222704015	0.18049741963028765
1.470939	1787824724658108160	0.003769322641192134	-0.0033346979383310693	-0.0004730952925438136	0.18252622829203713	9.734538990781248	-0.05009747038005942
1.478941	1787824724667108352	0.006644969688083072	0.006221143430908547	-0.0071428248149189855	-0.003336941530785238	9.715272684624368	0.076622264190945
1.486973	1787824724676108032	-0.003513401672832829	-0.006442249915696101	-0.003641791560775269	0.055685031333541204	9.73686245525633	-0.1881434284656633
1.492093	1787824724679108096	0.00019942105716004718	0.0004165917527619947	-0.0007663806288749943	0.04475175527304359	9.636898493818657	0.024492126228955302
1.492593	1787824724682108160	-0.00201287972957225	0.005866724353112555	-0.003518646208249265	0.09867498752742937	9.623392751617628	0.1996861847027468
1.496807	1787824724685108224	0.0016672334257587804	0.005715669172680956	-0.006228946429654424	0.04280061569012346	9.712732008204306	0.02330328111354426
1.506504	1787824724694108160	-0.0007424509956712312	0.002879634100883268	-0.0015952446142564313	0.1782825237941731	9.760684136455025	0.0693873651301727
1.508761	1787824724697108224	0.004249850855836885	0.005594274404655721	-0.0009986297134338532	0.05765690403143101	9.81904568385786	0.07639357624306449
1.514299	1787824724703108352	0.0024295771711916234	0.002265146111952924	3.0109328508950463e-05	0.009140052831894833	10.040049587002839	0.07838743251699781
1.515369	1787824724703108352	0.0022318136129451166	0.0006215200910405841	0.0026799526398200123	0.05620153870285288	9.7250180812396	0.09949114492627004
1.522148	1787824724709108224	0.0018500270321045488	0.006009605227180971	-0.000845302622135894	0.02222783528085412	9.875012615264618	0.12737008910622924
1.526606	1787824724715108096	0.0016019993655788448	-0.0041560078438350676	-0.004287625035169735	0.08688280991464989	9.760702187023789	0.062252498870646336
1.529060	1787824724718108160	-0.0011862986088454093	-0.0003644881573402498	0.0006629292701932979	0.30718276025802704	9.923869266423464	0.04219932116482486
1.539664	1787824724727108352	-0.004205164260578785	-7.007427553976228e-05	-0.004100008833788204	0.10044739667556733	9.69622757083373	-0.03324977325001316
1.543807	1787824724733108224	-0.001354379995248292	-0.001544036937085401	-0.0054367751169494835	0.07073936911115555	9.620644407449225	0.034060213963047314
1.546009	1787824724733108224	-0.0011495695318758927	0.0018979234193225055	-0.0024746182182559845	0.12008658479697158	9.816114597196787	0.03239035247968715
1.551332	1787824724739108352	-7.331381971046789e-05	0.0036693804573769253	-0.0033213865069833854	0.09019243200419197	9.63630523764394	0.010233856270187438
1.559098	1787824724748108032	-0.005700518560386982	-0.0037105158828889505	-0.005449569399216313	-0.019732997137623755	9.831835363181513	0.09467913716936634
1.565711	1787824724754108160	0.004297947039850239	-0.0030416507393106625	-0.007520863631727186	0.05147823010552217	9.897418706472326	-0.09040035918392302
1.571890	1787824724760108288	0.0007557357359759514	0.0032226743139231752	0.003598995163683965	0.1908301768892745	9.817493538431139	0.06672896826885932
1.572390	1787824724760108288	0.0017591164826080983	-0.00017238431507238141	-0.0005904662412435538	0.03437579023043679	9.731662527672416	0.02876278566808133
1.575795	1787824724763108352	0.0026907701502763394	-0.001757784485746231	-0.0033210747716044273	-0.03977828017091713	9.690150793487305	0.005247736445177001
1.580293	1787824724769108224	-0.001549003682666525	0.003946044322247203	-0.0008322402997444835	0.1657851847336082	9.782690788621858	0.07755884438963083
1.588849	1787824724778108160	-0.0024924182855756297	0.0018526916187693644	-0.004952095154094133	0.12270991574471632	9.630024293416684	-0.04653369557576869
1.590724	1787824724778108160	0.00040362032965683	-0.0015590216922662383	-0.0040405132739971695	0.08721560157905485	9.748798008750716	-0.02695480712779033
1.595289	1787824724784108288	0.007261918987032968	-0.003272379581250694	-0.0010790991735233188	0.2211605426611337	9.774702773574829	0.20690963503267681
1.598600	1787824724787108096	-0.0028616790231563317	0.003440203954858659	-0.0017506348521937804	0.1312626211900261	9.756939275347989	-0.060123011071101226
1.606113	1787824724793108224	0.0019885803441489504	0.000807804038555655	-0.0006006159438717931	0.16677982030422056	9.820139758013855	-0.006010780485395129
1.614661	1787824724802108160	-0.0019728548044989744	0.00032491920489546226	-0.0059626962222718545	0.19876262657355645	9.839146221906157	-0.042017713664661886
1.617147	1787824724805108224	0.0015789211154462668	-0.0010528893904543871	-0.0055310765583901885	0.1766916316864616	9.901596072420022	-0.05578318871718502
1.621261	1787824724808108032	-0.0010793581777600587	0.002220261329376784	-0.004870175037839951	0.09268539919833965	9.692062961362478	0.03543592031254346
1.625893	1787824724814108160	0.00014269172186462918	-0.0007727850481443516	-0.0019868753792819413	-0.06291391183853223	9.706825401119172	-0.010581590678899518
1.633636	1787824724823108096	0.004214850741839735	-0.0011877919970170103	0.0015462215244458114	0.06456157684710527	9.751685519584106	-0.12578062521854907
1.642855	1787824724832108288	0.005874711152242168	0.000642253275028908	0.0023534269045324702	-0.008199023675894243	9.794992443483421	0.05099350299907697
1.643355	1787824724832108288	0.002268503587247478	0.0004080142897904674	-0.0037797858853351757	0.15768963423291793	9.765906941512947	0.11815118709752948
1.647756	1787824724835108352	0.0029192451281451577	0.002094157644425754	-0.0009726071725900255	0.017548782962518092	9.802442813601335	0.13432881081849557
1.658122	1787824724847108096	-0.002079816798353194	-0.00463355197324519	-0.000229888115127393	0.10627383163358056	9.720699903841036	0.0405008053941623
1.662897	1787824724850108160	0.0047708920709585104	-0.0006094666468535741	-0.005510565359353065	0.02103023475361055	9.758080583167	0.14544746719050294
1.663397	1787824724850108160	0.001707114799241483	0.00024735789701625156	-0.0026180438349858626	0.0796309809332999	9.813805529968656	-0.04539975592076256
1.667193	1787824724856108288	-9.494257442862141e-05	0.0011049991048886973	-0.0018662965976732036	0.12220562829501676	9.772432824552649	0.0506868380693671
1.670372	1787824724859108096	0.00609505167400981	0.0067187752294271316	-0.005579089888928005	-0.013018360320726102	9.844501231050218	0.05452636251073567
1.674217	1787824724862108160	0.0012632587663665967	0.0003090969471340138	-0.003745505891311447	0.01188808463399061	9.65813112303948	0.04708850159482352
1.682941	1787824724871108352	-0.003576373685581907	0.0034938875286020738	-0.004668038783583316	0.10012092849621092	9.805394263646187	0.09286778258377652
1.688776	1787824724877108224	0.0007160788632228545	0.004842893186587184	-0.00034273211031464706	0.11396408912075315	9.747277656014974	-0.023250843472165706
1.689687	1787824724877108224	0.008450511997924317	0.0010435677501876264	-0.004982921623875382	0.09544585070698446	9.786440678443073	0.09959145777072492
1.698565	1787824724886108160	-0.0005051819326037119	0.000500705959938976	-0.005948648978903763	0.0411000172885454	9.715696979941594	0.17509321073615486
1.708123	1787824724895108096	-0.0025850657036146155	-0.0038416596931535713	-0.005495508082063082	0.17118247120020763	9.804780389706913	0.12388559288766184
1.708623	1787824724898108160	0.002263961108376464	0.0008929962022769972	-0.0006305231343596859	0.01193990991390307	9.703673512911637	-0.05000364306020961
1.711086	1787824724898108160	0.0032588844219383147	0.0007629210924366468	0.0020613028617174284	0.04132920703586285	9.684610624120625	0.06818620410422054
1.717188	1787824724904108288	0.00017651136592483998	-0.0016200556320517595	-0.004653547905945569	-0.01914546738517632	9.734236705169604	0.0949367587000314
1.722595	1787824724910108160	-0.000955670014988072	-0.0009092217391962229	0.005011726393924417	0.0575277319637842	9.817463206903533	0.017530468658347634
1.727880	1787824724916108032	-0.0016980961051090836	-0.00026768775291440266	-0.004399409416062859	0.09780746011250607	9.742767718014512	0.04505392898513964
1.735152	1787824724922108160	0.004082994581655897	-0.0005572760329339605	-0.0016896442981938875	0.08692287959420947	9.791299028196748	0.06266880726571414
1.737808	1787824724925108224	0.003125605654360114	-0.002479862241840972	-0.006584727000750216	-0.01375947982480803	9.882727499617118	0.07456903628348166
1.741101	1787824724928108288	0.002338262385035304	-0.002629185778763094	-0.0009412637777126553	0.04898773122652401	9.815894406977247	0.005240555667443377
1.746239	1787824724934108160	0.004730115019460395	-0.00379078243465153	-0.000438268451609833	0.021259008336452095	9.745044900490345	0.08751919628574716
1.754054	1787824724943108352	0.00159042265164624	-0.0014886547971342192	-0.002056477282514964	-0.014442037044418553	9.781315703201985	0.01602086557020746
1.755546	1787824724943108352	-0.0012938819464794775	0.00039229956721535046	0.001200993574451028	0.051951629148883904	9.85224128230969	0.011292773554576613
1.759677	1787824724949108224	-0.0009061159802834978	0.0029621952691270153	-0.0038021701724743028	0.07587290713191112	9.688825726887584	-0.034571572746757456
1.765924	1787824724955108096	8.323751426025667e-05	-0.0030128034271645066	-0.0008199450037481002	0.039096799471488926	9.694796443197768	-0.06622727731665629
1.768838	1787824724958108160	0.006670409143929932	0.00467105435403494	-0.0027859956337520976	0.05990648946946433	9.644511745279944	0.11450449424611131
1.779275	1787824724967108352	0.0011086191719567144	0.0015827323075535342	-0.0030749297925849422	0.09178825622238183	9.767290415288041	0.11342872868870514
1.779775	1787824724967108352	0.0013036922277385368	0.0032878234729266952	0.001311323474134394	0.020558717282656378	9.758178786445137	0.011424301334583706
1.784257	1787824724973108224	0.003975056074951133	-0.0010374206262421732	-0.0036811935712979084	0.06043578763284446	9.757033744771343	0.07446346825192666
1.791451	1787824724979108096	0.0024357722345696	-0.005179081859958174	-0.0016673919429424464	0.10644139866657942	9.817793863675583	0.1265670120230704
1.800198	1787824724988108032	-0.00042573866128752425	-0.0022665937986242595	-0.004923235372909859	0.11667458286946833	9.802682013557156	-0.028609818610510825
1.804297	1787824724991108096	0.0015266310262035167	0.0006094041929238234	-0.007542904217675367	0.046254942353605895	9.648763724092147	0.10635160129373789
1.805607	1787824724994108160	-0.003537637548963828	-0.001503247935829996	-0.005261655749786008	0.1729480323032236	9.861373692437429	0.07114139323397149
1.812450	1787824725000108288	0.0001173580334477421	-6.750580654408698e-05	0.005138873373429831	0.06347603327110764	9.870464154038189	0.057954665422940164
1.813578	1787824725003108352	0.0018945860723533965	0.0010411346207298117	0.005059670121466492	0.05809595529162492	9.790988240773764	-0.07463615380295198
1.826506	1787824725015108096	0.002765330358454967	-0.0003042259780209281	-0.0033215044794655518	0.18666469902946237	9.740090516520164	-0.11979318934238962
1.827006	1787824725015108096	-0.004355563505428617	0.0007281401739587346	-0.0021531796817584638	0.25543826012620025	9.815705856512558	0.04269699519761185
1.830034	1787824725018108160	0.002316022386207376	0.003434627760431368	0.0040571816644600685	-0.1850383431378922	9.782054995983573	0.025547765489925427
1.832253	1787824725021108224	-0.0001545154098717645	0.0006803502267457454	0.004157154194238865	-0.07870136440385382	9.815409280157255	0.16838108568680102
1.847246	1787824725036108288	-0.00015378299268039566	0.00303450528454321	-0.0026914385076919683	-0.09638669246405138	9.799801311241474	0.010228640842737363
1.847746	1787824725036108288	0.0010701490959513333	-0.0032028300060030265	0.0013619290408174612	-0.03097160951078458	9.892107200521917	-0.04860043926655051
1.851409	1787824725039108352	-0.0025099183270774258	0.002117891521209705	-0.0023441219893855234	0.11497884239146647	9.752814984822447	0.08203244833048555
1.860201	1787824725048108032	-0.005602517589137191	-0.00020011441983415674	0.0001546268734114297	-0.0022121453379390175	9.702776297080929	0.021933768298617127
1.864466	1787824725051108096	0.0026921176644119633	-0.00034903900589257483	0.00092952778864674	0.06900733883116836	9.824309569327362	0.1955645474961728
1.871012	1787824725060108288	0.0006254482302780497	0.0022239699040320074	0.0010869516338667025	-0.06631084674716087	9.839317442341292	0.061940251050443075
1.871512	1787824725060108288	0.002204176349877708	-9.194392370174631e-05	0.001188786207396202	-0.03609876611534262	9.85509063715042	0.1764497473586365
1.875727	1787824725063108096	0.002859125157844747	-0.0007454652676857278	0.0006679586338577828	0.07531898576569003	9.896164245805984	0.013097759674950412
1.880919	1787824725069108224	0.0010468885480521871	-0.0035749370917009466	-0.0004890593591749216	-0.055064745836022125	9.727511133180341	-0.021662884808558946
1.890057	1787824725078108416	-0.0005476403057056433	-0.00163744106031193	0.0018620272796336754	0.15453819257841073	9.856489818775595	-0.1451998635917994
1.895662	1787824725084108032	0.0038291556256205717	-0.003829378679194383	-0.0026302541262354768	0.05048596947030203	9.731581379330297	-0.035314504045110044
1.901682	1787824725090108160	-0.0025119277438859213	0.0006558982522268754	0.006052306937673562	0.03570952130346933	9.792117737748391	0.10462052409446418
1.902182	1787824725090108160	-0.0006657414961961823	0.0028220138161179032	-0.0017860121103638377	-0.16331092683815687	9.895556806258151	0.04931946418399623
1.909037	1787824725096108288	0.002527425128967582	0.006557443266594684	-0.00864915403185123	0.11187524417767326	9.838977881510719	0.10498351547478893
1.912966	1787824725102108160	0.0019911594714429434	0.004510193759999819	-0.0031637584761752876	-0.03516576076450387	9.904309124469622	0.036401394571165355
1.920696	1787824725108108288	0.004672812107968102	-0.003288265055932784	0.0005441525062903265	0.053784355798984274	9.712199928145221	-0.026090467236497522
1.921196	1787824725108108288	0.001361989129323293	0.005941819502084652	0.0001354491152336418	-0.006401550469052287	9.70399053481111	0.14390775937872433
1.929484	1787824725117108224	0.00647150324053941	0.002620720594779101	-0.0022723661054030665	-0.04039836653691655	9.818365488005837	-0.24647647751830035
1.935863	1787824725123108096	0.002803064592455388	0.0031210961732681206	-0.0005931632748836743	-0.09878449409968264	9.638292868278059	-0.04693849202281041
1.936512	1787824725126108160	0.005180253102163	0.002409418927593244	-0.0015359879467905819	0.06262284684371183	9.738731219833536	0.1481782038191925
1.942111	1787824725129108224	0.0015579052254216486	-0.006257379226764059	-0.002212827187119588	-0.053745671559727703	9.758026216304383	-0.10189206823432391
1.943067	1787824725132108288	0.0016338963541336657	-0.0021228450871746407	-0.001742698094217087	0.002367871761616836	9.88801132773809	-0.022792705779105728
1.952858	1787824725141108224	0.0016543632669983035	0.001533137673989195	0.0009436822425497985	-0.12688225494610117	9.868302336903678	0.14506505745359982
1.959798	1787824725147108352	-0.0024892494993860176	-0.0032260512969650022	0.0027734601778884264	0.07690340076152113	9.790133309079355	-0.008656530403182334
1.962854	1787824725150108160	0.004817050387209329	0.0018959261123660007	-0.002015023354018069	-0.03907464249358348	9.853817994976449	-0.037456676634426825
1.967681	1787824725156108032	0.004707057434981228	0.0037460557489922986	-0.004959041570628712	-0.05896075609282361	9.829645730842062	0.12189390784965883
1.975643	1787824725165108224	0.0013104124977148643	-0.0007149731856071831	-0.0031188854219910576	0.05708339696300514	9.830182733797841	0.12783514458354137
1.979956	1787824725168108288	0.004797152432660755	0.0047430611547777035	0.000606261725164486	0.20872760894447723	9.829055623558055	-0.027678788757366807
1.985056	1787824725174108160	0.0060116909989609765	-0.00042551445439426797	0.002603425899888689	0.049145577358261326	9.787720726051301	-0.10466260051614673
1.987566	1787824725177108224	0.0019776967468493533	-0.006185713658576657	-0.002887212832873581	0.054006355997352554	9.853956294356012	0.2638283574226542
1.990677	1787824725180108288	0.0030683418267835106	-0.0020475882151319716	-0.0008609409359112037	0.04489794232562211	9.930581740524916	0.013833518661738695
1.993715	1787824725183108096	-0.0010318714982976123	-0.001990073932001224	-0.0013408823110645876	0.02343765145683313	9.873078097171987	0.04614920855950356
2.006731	1787824725195108096	0.005018068207920386	0.003610823020694139	0.0020905422865912953	0.04155080140556506	9.614283947146738	0.048657179257972465
2.007231	1787824725195108096	-0.0013664728896010002	-0.003962031902102053	-0.006192627258163617	0.040120586451381515	9.771611569696528	0.1485111398500356
2.009875	1787824725198108160	0.0007499291903825	0.0021770415156675267	0.0004348536871476923	-0.07059154772288649	9.791163317903878	0.24272683849924945
2.016794	1787824725204108288	-0.001345393857117373	-0.005126745878331321	0.0030636167414688697	-0.03474386211797918	9.760019764979074	0.006953980191180884
2.022799	1787824725210108160	-0.00433827546064939	0.0005133315537083899	-0.004311630835817891	-0.1030225438731315	9.782477220613679	-0.029259825594794835
2.027950	1787824725216108288	0.0007791390509439833	-0.004020869796935709	0.0031168901180307013	0.08803297534188279	9.7982957629486	-0.07889288509744594
2.033766	1787824725222108160	-0.004299868568099989	-0.0022051505033422554	0.0005883296018484919	0.0579018440837447	9.907372848477559	0.02638317363163458
2.034266	1787824725222108160	0.0018704625468466346	-0.0024508432653778246	0.002727397686189704	-0.032915581031362856	9.817280745366325	0.1608027793529145
2.046397	1787824725234108160	0.0005026863500932162	0.002562509290024268	-0.0010180257500127955	0.10535706768553596	9.848754210686208	0.06571628625931382
2.046897	1787824725234108160	-0.0010977355446928087	0.0034820541440485266	-0.002633876022090049	0.1498323159163784	9.818644981719126	-0.004033281592465911
2.055214	1787824725243108352	0.00173218029305768	0.00384526301183222	-0.004097176464446911	-0.06483790534150188	9.70488691798146	0.0752344073468195
2.059623	1787824725249108224	-0.0031199005167448493	0.004044419493491106	-0.005573461582356401	0.09473227288843752	9.84262538653063	0.026294322747430102
2.060123	1787824725249108224	2.5184419942830003e-05	-0.00041317260627260293	0.0009797112072157284	0.04841206221383021	9.926515722994809	0.11466624375810493
2.062803	1787824725252108032	-0.007058411833006281	-0.0009229328672574679	-0.004563722351328019	0.005400179719543748	9.795030780445854	-0.024909748787408117
2.070442	1787824725258108160	0.002125402708673503	-0.0028872850774907723	-0.0009541200727966036	0.09643358646864615	9.710336720399777	0.07056836561544362
2.077629	1787824725267108096	0.00018134543682560365	0.005301905489657975	0.0059652060839567676	-0.005803287226581428	9.74625045099129	-0.007984263223016083
2.085679	1787824725273108224	0.0012943569107583767	0.0008104473154629756	0.00013867272703343286	0.09339661119822515	9.76138473386386	0.11952477098254959
2.086974	1787824725276108288	0.00387304468727838	-0.00033946854842163937	-0.0006563736362013883	0.024356782962011502	9.774154323363373	0.023300932906432974
2.092165	1787824725279108352	-0.0007658639923059948	0.00021018305886562067	-0.0021784690208338947	-0.03816843530660625	9.870242169897683	0.06596546141225851
2.098450	1787824725285107968	0.0056459495937555716	0.004403290759915707	-0.0024090041247521437	0.002859384406800001	9.816306130083301	0.11724949080979018
2.099007	1787824725288108032	-0.0001171667877308579	0.0014652515206427848	7.043884605621113e-05	0.042549954456316444	9.731837414032901	-0.008986905468929636
2.108358	1787824725297108224	0.005191459646437066	-0.002742109389616454	-0.0018865768746255578	0.02092956617702644	9.834044803413848	0.11723704948650154
2.111202	1787824725300108288	0.0038867966294487306	-0.0012906597573198921	-0.004181250123115449	0.14761331810807551	9.892133888581691	0.013768090294405125
2.114934	1787824725303108096	-0.002572756226809648	0.0019826725760164936	0.0031329340296200386	0.17493003606138935	9.80830515588275	0.06339518141372974
2.119996	1787824725309108224	0.0015501306148677258	0.0035296226658901426	-0.0017654417660950402	0.1416347537317777	9.840711204056712	0.08286997390819019
2.136015	1787824725324108032	0.004646275910409328	0.003448321247850681	-0.000639672593296726	-0.06978253531854495	9.961364603326036	0.03818671107708986
2.136515	1787824725324108032	0.004656762177292178	0.002286726868832134	-0.004669731938073427	0.0053805637544429704	9.650380196701859	0.06766724495575274
2.137015	1787824725324108032	-0.0007066635822106255	0.005232087238908633	0.0022335518842737765	-0.009180070364105147	9.850896918829546	0.04974684021455574
2.143116	1787824725330108160	0.003162163904596718	0.0006058914381892128	-0.004919695268323471	0.009501114763500535	9.848450733355351	-0.08492852896923483
2.149305	1787824725336108288	-0.0006789951675908098	-0.0074201184601469395	-0.00016462179056508475	-0.043490635288190235	9.869624575546458	0.030953153407432134
2.155805	1787824725345108224	0.006151230987478295	0.0025473222996139308	0.0012002281827491238	-0.037130327225896126	9.806490996275453	0.09597299705659637
2.161993	1787824725351108352	-0.0006541416399291026	0.004148790360088868	0.002187381267015931	-0.09105122494721447	9.759944627527046	0.03410910023359201
2.162493	1787824725351108352	0.0016066305386868368	0.0020575122894311297	-0.0039620297934734264	0.062371178227861666	9.740572655011736	0.06536941068154918
2.164178	1787824725351108352	-0.004503948064933536	-0.0003646362514386942	-0.0016533770683227569	0.27554543386944363	9.744333980611422	-0.036156843102052326
2.170833	1787824725360108032	0.004501190247599194	0.00041347078190384396	-0.002403190558698157	-0.026513731845555336	9.836965705254872	0.07493596314246706
2.180911	1787824725369108224	0.007826605209810517	-0.0008337598250548582	0.0029469605569462723	0.12777529972615914	9.80941195154869	-0.04035755706500623
2.184585	1787824725372108288	0.0017250275496824396	0.0022022157154408155	-0.0028499799539538377	0.04645382982345727	9.648066391659157	0.0186038806404911
2.186601	1787824725375108352	0.0006015476265887529	-2.3103220848167457e-05	-0.0035105951496035353	0.027914112946000526	9.774723118286154	0.013420823543819098
2.220146	1787824725408108288	0.0003834424295580499	0.0009051893267505394	-0.006427214445946012	-0.02619413559338856	9.842713942784787	-0.046957466663013966
2.221174	1787824725408108288	0.0018951236189582677	0.006117948317635796	-0.001441204042152352	0.04891251610930233	9.818498875689865	0.03244033694687692
2.225368	1787824725414108160	0.0020056359415393395	0.0009644875949750432	0.000602933359504926	0.20028385852999256	9.846837902011483	-0.03891656936302122
2.233056	1787824725420108288	0.0035720806267081026	0.003779964036716134	0.0006916498821127354	-0.008356829637459193	9.600338221019049	-0.008876254582518606
2.238220	1787824725426108160	-0.0031745227039444547	-0.004267739751537438	0.0002552446081412012	-0.026579164107986858	9.746032144291245	0.0007251996345162938
2.241904	1787824725429108224	0.002873887204736335	0.005144276895540409	-0.0014247283279137358	-0.11583620856191093	9.611110108939553	0.12052620450382118
2.246421	1787824725435108096	0.00042471110265292374	-0.000463324466023036	0.0036267910943772064	0.08902796325497382	9.777478660389347	0.1587178195340148
2.254255	1787824725441108224	0.0001681063403617768	0.0012598632429331065	0.0060384933133569765	0.0994602461697858	9.682821528200913	-0.03958709789585621
2.259347	1787824725447108352	-0.0008470097056829512	0.005612941048822141	0.002599069359355871	-0.026303857931811846	9.83476583603076	0.048438593420327594
2.259847	1787824725447108352	0.002948334912565133	0.005304419730040713	-0.0026700132530934817	0.04158754855878486	9.726535690966866	-0.08275221467764846
2.266961	1787824725456108032	0.0050028055483340135	0.00033526010788627726	-0.002191522383769221	0.07355255557879126	9.653104183804054	0.11529646339244884
2.274870	1787824725462108160	-0.004695432442074263	-0.003461402284964819	-0.006569137333576815	-0.07472944172560728	9.860725800116311	0.07076444579875533
2.279781	1787824725468108288	-0.00014804815703415306	0.0018882698756586334	0.002436367527942739	0.038921364978859486	9.732672330880211	-0.009648687793668854
2.283970	1787824725471108096	0.0025016450704580095	0.0035441530217046797	0.0019265358319622877	0.07569821260752407	9.900583218644915	0.1867231693509171
2.286141	1787824725474108160	-0.0009659038872634251	0.0004969409162349183	-0.00701570543097443	0.05734109100843465	9.738587686076329	0.005898907587602352
2.295487	1787824725483108352	0.004242775624022962	-0.002085554776701388	0.0013165025197737967	0.15968782716709823	9.744573969290112	0.06868491708688053
2.297382	1787824725486108416	2.7766771951323642e-05	0.0001334882425755475	-0.00018605057259980177	0.03441287564755175	9.765360608627343	0.14812921134433027
2.302487	1787824725489108224	0.001105753592334979	0.0026577408690192984	-0.00492624820145853	-0.04727158170121609	9.993789403403996	-0.04936337243346841
2.303242	1787824725492108032	-0.0010197859826905687	0.0013944868279144804	-0.0013569602849625834	0.11329819191195722	9.832555229718698	-0.1230610959102953
2.311627	1787824725501108224	0.0025373825635123123	0.000967743115127514	-0.006281871802137547	0.168037053336858	9.88427286928046	0.09935052594005297
2.320335	1787824725507108096	0.00552892029297207	0.0020878431893632935	-4.7653873466546744e-05	-0.08552363390053684	9.713574817003948	0.07657803453772953
2.322737	1787824725510108160	0.001838654509244461	0.004853072045180712	-0.0012375713054391803	0.027864913737882177	9.823150172171893	0.0537395731259408
2.325163	1787824725513108224	-0.003882954376194542	0.0008720828843721991	-0.00010427199405543949	0.1451495223538556	9.81840500817491	0.054530194591662494
2.328520	1787824725516108288	0.006865983743893368	0.004154018768369324	-0.004270375066649755	0.13511791513244578	9.80685943500992	0.10590046094963572
2.336211	1787824725525108224	0.003128112334392962	0.0013445611982299086	-0.004959601325020264	0.16593888368475346	9.688000791300603	-0.07183282057318413
2.342595	1787824725531108096	0.006643535173441102	0.008136969331841905	0.001129802482463282	0.0103843776264185	9.829686760934798	-0.0011548171544893157
2.346058	1787824725534108160	-0.0004529843828539027	-0.002764904858933977	0.005888303185180472	0.11112054686977497	9.743704516060554	-0.12948339090385308
2.357177	1787824725546108160	0.0017739935816131936	0.0017680591827834782	-0.003058289405290242	0.15470969888000544	9.848689704925278	-0.1519460403039209
2.357879	1787824725546108160	0.004661779714550415	0.003199601763094424	0.003095913995834945	0.10570939434443442	9.751471699186945	0.0076442404891063145
2.358379	1787824725546108160	0.0031182039587362566	-0.00021801601337556836	0.0026741232283214907	0.049702645136730596	9.766979309946887	-0.1033226983752993
2.384262	1787824725573108224	0.0024329580221418147	-5.305979799445507e-05	0.0038287790657349006	0.1493762272212914	9.778834548062756	-0.09844045285415956
2.386367	1787824725573108224	0.0011782151175278824	0.00017514742447495807	0.0039012653700804373	0.14250576267343135	9.753682284859655	0.11427695395229887
2.390535	1787824725579108352	0.004052986487119641	0.0009048855071930571	-0.006051763570416975	-0.01538042412301787	9.870871720698027	-0.01962304580927933
2.395280	1787824725582108160	0.00032357369035451657	-0.0011322642472132883	0.0006831194891724277	0.03949181139193572	9.755957352075148	0.059076694811218494
2.401992	1787824725591108352	0.003559903142483193	-0.004917220961826839	-0.005307392284568805	-0.018181364138335557	9.839317556430572	-0.005378540020487132
2.409708	1787824725597108224	-0.0012212215184174903	-0.0028701813051070896	0.002502840354305851	0.24612762796493423	9.696007880021417	-0.08287762450881983
2.410208	1787824725597108224	-0.0029420189447226237	0.001688566325127822	-0.005693789138255365	-0.023624666102862877	9.743860702966368	-0.09968094384084307
2.415181	1787824725603108096	0.010526292118198681	-0.006551271246211947	-0.002851976973742205	0.06392347576144318	9.958550992905666	-0.010410379932398755
2.424510	1787824725612108288	-0.0023011596980047054	0.0021742135305768077	0.0024673749256572414	0.025527879914362187	9.65269796167904	-0.04226905504127403
2.426070	1787824725615108352	-0.00363441764770946	0.0007396789066967629	0.003544678078709007	0.06121877694622903	9.723517834904879	-0.0031603074094239065
2.434280	1787824725621108224	-0.0007645883480691866	-0.001772340466190858	0.004725891734636586	0.15300270553077946	9.841348514405366	-0.0394165417631949
2.446516	1787824725636108288	0.0029576235208080785	-0.0012632391392137527	0.004608932556957387	-0.0018326116762908884	9.873217577874268	0.10956203285359956
2.447016	1787824725636108288	0.0025878589444396647	0.0015475797220740096	0.0019437890001582666	-0.024552093763325476	9.78472287239441	-0.0592901604936863
2.450165	1787824725639108096	0.0007098886823195141	0.0007486754625992531	-0.005703659638396276	-0.0023323219092032687	9.766652674491587	0.08399591591177537
2.451311	1787824725639108096	0.00036353507814534497	0.0010567614961451708	0.0008793772195809904	0.06929716124836385	9.850742348229936	0.06860791929387863
2.459473	1787824725648108288	-0.0005144729925173007	0.0007407268169336901	-0.0006602437750681861	0.07926604603670076	9.84753753257357	0.12993122177227076
2.465451	1787824725654108160	0.00045433310620361346	-0.0021247998624198926	0.003385135672031468	-0.04589549378249958	9.859218878505263	0.024556451290404423
2.467405	1787824725654108160	0.0017243983118132174	0.002495874464142296	-0.0050312126755622764	0.062259088538596706	9.818637356570829	-0.022200759933833695
2.474407	1787824725663108096	-0.0008298892165522237	0.0010843226399490705	0.0007092738686833162	0.10603814760513156	9.829084574414324	-0.026531900518450068
2.478732	1787824725666108160	-0.0015925139413508834	-0.0023857961317416123	0.004485250071408378	0.0024341641564805524	9.750821763454265	-0.06989008192952947
2.479531	1787824725669108224	0.004396430387374982	0.0018897805781052956	0.00021801593999321305	0.09538514300686522	9.736227611738766	-0.0024755617082551458
2.489951	1787824725678108160	0.0021180284956365007	-0.0066829836175721575	0.002891808760613663	0.006322016149702488	9.741596906410416	-0.004071337497453026
2.490451	1787824725678108160	0.0008211833111910502	-0.0009324175441249165	-0.005267878610769067	0.011811825707346329	9.773692151143567	0.033212195130061274
2.498347	1787824725687108352	0.0005435369392721957	-0.005117901370158461	0.0020374417490414405	-0.009841497061500698	9.60831897007935	-0.10433828957947133
2.498847	1787824725687108352	0.002903074939150239	-0.0005816837505769072	-0.0025685740548210497	0.13910044766774582	9.772895492142645	0.045302930926940106
2.503201	1787824725690108416	0.0013027564273471915	-0.003328266748493309	-0.0021811436805088034	0.0742060800850411	9.74382983733665	-0.005820916200639764
2.508856	1787824725696108032	0.0013545189653214676	-0.003570319420608957	-0.0028313113390766374	-0.033013337457795854	9.77601474946993	0.05436606410181306
2.516570	1787824725705108224	0.0026979426149707107	0.002572973146122819	-0.0003976940529633528	0.05770541574598449	9.655647367288005	0.11806193546749724
2.523661	1787824725711108096	-0.0005618090848293831	-0.0005546676123420414	-0.0021126945735860246	0.1291204856852334	9.665004830279567	-0.09258735801444062
2.531305	1787824725720108288	0.0012724206370598376	-0.000223104741637402	0.003361362921138769	-0.030935980459593684	9.602701101533492	0.007626304132189318
2.535832	1787824725723108352	-0.0010785085204481973	0.0006638044920105014	-0.000941868426589938	0.16417373344599337	9.638813008543067	0.1471056459275259
2.541995	1787824725729107968	0.006333076137496276	0.00043198563326152467	-0.0031041950350052007	0.0827802982246101	9.79495021215517	-0.09219662795313022
2.542495	1787824725729107968	4.85494978845977e-05	0.0032204173797568	-0.0029408703059906434	0.049731655053290705	9.985080226194038	0.049159294230983155
2.566738	1787824725756108288	-0.0031393076854962384	0.0007425802723869914	0.003398481719924054	-0.03755750570034086	9.67561469621133	0.005294219822324278
2.570871	1787824725759108352	-0.0014840415313963204	0.005628007987047853	0.0016023329498147977	0.04055361753797415	9.87790687348511	0.15010849624679165
2.581619	1787824725771108096	-0.00063273856500954	0.004578405026343296	0.0009452364562536771	0.10894849454450811	9.743401400720442	0.08520536015749205
2.582160	1787824725771108096	0.0039043093599199965	0.004194849488692194	-0.0001511041935820047	0.19202670396356816	9.801117767557733	0.11193085086919718
2.588477	1787824725777108224	0.002257562198472515	-0.008040854052455176	-0.002792625117579518	0.016147917917387702	9.87921195842264	0.09774910484947476
2.593167	1787824725780108288	-0.0045584463682887795	-0.002808909627310764	-0.0006335767586623784	0.05986463564937986	9.764162971488352	0.11535380193705487
2.599529	1787824725789108224	-0.004060340429375744	-0.003005935385703923	-0.0024489042317257874	0.07290047141955983	9.737861252097758	0.02429700527133829
2.605034	1787824725792108288	-0.001044936748283117	0.0003554648884802312	-0.005995341627993947	0.03929125940678408	9.810653131375263	0.17245291230693463
2.608053	1787824725795108352	0.002378639723509725	0.004200768280872245	0.0007741843595986723	0.053035207246936396	9.730418415302426	0.011094856600164292
2.615434	1787824725804108032	0.0026086810809110507	0.00033638717797382427	-0.0004468909536816073	0.061224325721617366	9.798048484161807	0.04143843273486804
2.615934	1787824725804108032	-0.004470008153340186	0.0019900637596554456	-0.0009620163892716392	-0.12937424296510744	9.728104266902609	-0.01414294260426295
2.622038	1787824725810108160	0.0015570995821783374	-0.001943500341140197	-0.005275061089642614	-0.1083636844244976	9.809904214305387	0.08100007993578892
2.631306	1787824725819108352	-9.436180275582709e-05	-0.0007450651581935208	0.0037232897603206596	-0.13092360786171472	9.627690565800552	0.04968870512794301
2.635538	1787824725825108224	0.004534446308251752	0.0019300339291611268	-0.001957154037103049	-0.009799585224677455	9.842233346231883	-0.06167082715948353
2.639746	1787824725828108288	0.005582983206682944	0.001750398079486965	0.0038134912576257927	0.0846417462391964	9.707498209755768	-0.03299020178873631
2.644943	1787824725834108160	-0.0020457945142272347	-0.0016712535765034465	-0.00029104207779381076	-0.0320542265075127	9.838556801973782	0.24208569870181407
2.648557	1787824725837108224	-0.0026084163743177605	0.005093148912433705	-0.0017046280273275527	0.03738423221777631	9.90054156356209	0.14913561566383743
2.657498	1787824725846108160	0.001040622292773782	-0.0027840742988617735	-0.0026484041992794714	-0.06214444117337471	9.667002522053563	0.034973440337228365
2.660630	1787824725849108224	0.005625636539244662	-0.00048383297830773534	-0.005932468463562587	-0.07658549714385561	9.626995037180869	0.0034077007057491454
2.669148	1787824725858108160	0.005425070114951943	-0.0029895029304408643	0.0012657034400889754	0.1273739262252152	9.79805797288354	0.06077532920716682
2.669648	1787824725858108160	0.0006176209231426647	-0.001953111376621876	-0.0019312120240881812	0.05081257232913524	9.690843651147482	-0.1502699735728793
2.677278	1787824725864108288	-0.00015430653281695136	-0.004909381375449171	0.003813452226601703	0.02180298350991927	9.805078642787427	-0.03394323300728674
2.677778	1787824725867108096	0.002788487512489033	-0.005072963834594775	-0.001613119171474425	-0.02938351198970907	9.896955023036456	-0.0031027734513678256
2.683031	1787824725870108160	0.004091003388163157	0.0016936101920567719	0.0005918702954709565	0.025066877346681334	9.81655823640817	0.18977375033639687
2.689314	1787824725876108288	-0.0006414114875501814	-0.002563194585855048	-0.001365278580537234	0.04784701319351898	9.723442513442299	-0.2079276910143343
2.690024	1787824725879108096	0.004255356634548289	0.003468720569174657	-0.0010585245054000126	-0.12870832508439134	9.860119256993656	0.05112147782096361
2.702358	1787824725891108352	-0.0005965562817360362	0.0019419170470987364	-0.002103145828788704	-0.06929681602235961	9.831944842886728	-0.07192970891374344
2.702858	1787824725891108352	0.002241338593445581	-0.002418121860887256	0.0036070617639138653	-0.0663108897766011	9.919794009041908	0.06478054951169705
2.703358	1787824725891108352	-0.0025562448270654388	0.0025071822286239047	0.003696925957058285	0.13299733475043313	9.807310521856829	-0.10828981461324783
2.713550	1787824725903108096	0.0013906727015562637	-0.003922932158527318	-0.00199967870132793	0.023417988280281635	9.84202904578203	-0.021160730551688198
2.720638	1787824725909108224	0.002858227571084283	-0.0046268776969807775	-0.001995785183216833	0.004534057814785163	9.706019228964644	0.0501653338774419
2.726002	1787824725915108096	-0.0015208265569417105	0.00016531039144726425	-0.001471527462356151	0.09134157681217395	9.774915670582116	0.10839409691018277
2.730408	1787824725918108160	0.005827721451976236	-0.002525425917079025	0.0011864475852907512	0.02131639446499647	9.798208901116208	-0.02594839227835642
2.731102	1787824725918108160	0.0022715608218235317	-0.004937719140982978	-0.004037005467904229	-0.021124589342465895	9.740767096080468	0.07991060200625005
2.737001	1787824725924108288	0.005034064739467754	0.001756380096246475	0.0021594657270410473	0.11249277778079933	9.868661811246145	0.04606563589773554
2.744695	1787824725933107968	0.00347728388330816	-0.002619772696500276	-0.002959109897170657	0.0689113229009307	9.721172320242921	0.06385095252670908
2.746198	1787824725933107968	0.0030034992019699626	0.0014901226944901728	0.002566682871893099	0.14832346815127212	9.719919368884906	-0.024529984306208563
2.754153	1787824725942108160	-0.004204055771782617	-0.005166934218026972	-0.003631870173418657	0.027321158471946095	9.662260450601545	0.03372609419697879
2.755222	1787824725942108160	-0.0016352282659309943	0.0006534335974356472	-0.0012412703771910957	0.08970511062937017	9.814261680214276	0.06560652740610302
2.763761	1787824725951108096	-0.004851152664962453	-0.004301055243539236	-0.0045794555815191	0.09910763773696057	9.688114518638374	-0.005911959552648268
2.766891	1787824725954108160	-0.004708486082591168	0.003038034009948942	-0.0018352384211674845	0.037519827773779796	9.897452531609806	0.012046864151069312
2.767776	1787824725957108224	0.004944858884004604	-8.219830158924318e-05	0.004291440674210275	0.05424752481361429	9.834314337932714	0.12321553485522364
2.780632	1787824725969108224	0.0006044093464227432	-0.0013599237552750472	-0.0026887672060844506	-0.001206900213947694	9.641626155119107	0.007210451648259104
2.782785	1787824725972108032	-0.0012094928301346413	0.0029780809985591864	-0.0018097685110966175	-0.044037963797969135	9.74749663389826	0.008170920591968322
2.789532	1787824725978108160	-0.001848687824128642	0.0009421000178652572	-0.0015702857538033186	0.07862480949879119	9.688989795212795	0.057061058453040304
2.790032	1787824725978108160	-0.0019861136536245545	-0.00196838296246917	-0.0025425581098954264	-0.102250382742636	9.808448979194653	0.12400293101652131
2.793972	1787824725981108224	-0.0005530165218227122	0.0034249436720250126	0.0028980889708570853	0.05869479338920143	9.793290665574292	-0.008403466212452429
2.805939	1787824725993108224	-0.002366897651600054	-0.002721432618861456	-0.0016564947832201676	0.10728813123904851	9.835470367238594	0.06285404299472071
2.809396	1787824725996108288	-0.004050329425884705	9.755033668862425e-05	0.001781780050213293	0.018390964674233137	9.681032037604005	0.04320190621875858
2.809896	1787824725999108352	0.0011283731788652265	-0.002624424335016617	-6.926812174743761e-05	0.03260967283115575	9.863036440902452	-0.028246768638338655
2.814731	1787824726002108160	0.004077203667819644	0.003920567031718363	-0.0018736142644226136	-0.016048291820924807	9.82374177598447	-0.0005993639860047827
2.821024	1787824726008108032	-0.0020867101416633966	0.00024914146537434543	-0.0012663055712867095	-0.025423942498635683	9.832349875340187	-0.11617758136622473
2.826461	1787824726014108160	-0.00029471163954958486	0.0005151282269251266	0.0011215713070370124	0.05076875003650888	9.88307380435871	-0.11164939241126028
2.833190	1787824726020108288	0.0035142318193224467	0.002269265597157151	-0.0019474463004596526	-0.004276911147394689	9.726564462086381	0.10322884879456781
2.836339	1787824726023108352	-0.003358119436296379	0.0007154367637770368	0.0012838215583893724	0.05924925969817175	9.811512996187654	-0.026563300019521893
2.839771	1787824726029108224	0.0017891113911792508	0.003822148894015926	0.004776329904160373	0.02708043516937551	9.900429482375058	0.05696524116141633
2.849815	1787824726038108160	0.004038072991396904	-0.00019203828723488085	0.002966818939505007	0.09287797134859263	9.738708772279153	-0.06151389024526536
2.854763	1787824726044108032	-0.000786440284908968	-0.0006193695809097756	0.0044818889185202085	0.05853005282824864	9.709092156290673	0.08323346194782114
2.855263	1787824726044108032	0.0024969905007797117	-0.002243717620337418	-0.005365110494353622	-0.030216823912598712	9.677474686372829	0.09192308913663409
2.867312	1787824726056108288	0.0015824042351591588	0.0023927592467638237	-0.0005394079609253276	0.04818102593202162	9.706014248563902	0.14073881070182506
2.872220	1787824726059108352	-0.0012878762343342014	-0.004340539966746604	-0.0007866274714953755	-0.00118575922381711	9.709249257780911	-0.16085250082294392
2.873528	1787824726062108160	-0.0009314614417414054	-0.0016046162325457029	-0.00462892782348744	0.046126491498053104	9.79523471179645	0.024502749472890707
2.874028	1787824726062108160	-0.0012165569322593343	-0.002037460793856274	0.003900922859420391	-0.027099632165107752	9.73752151072978	0.0031114004308896892
2.889453	1787824726077108224	-0.0018076529048975682	-0.00042876229718407874	-0.005158790707218063	0.12517429723221252	9.675251424705435	0.052964390489787315
2.894787	1787824726083108096	-0.0005402734775011599	-0.007995326978687078	0.0007037231937704095	-0.11086614551828039	9.74704997080613	-0.06785219514088324
2.895287	1787824726083108096	0.00447250252367965	0.0009999982606772116	-0.004392609227262261	0.10017685918359606	9.72439323792146	-0.009573626673106338
2.900896	1787824726089108224	0.001608102698532703	0.0011402074536177502	0.005045579873475221	0.012903296060002427	9.760689884030711	-0.007657384957668948
2.905258	1787824726092108288	0.003684527866261929	-0.0016771341830224616	0.003748740975937114	0.111976475617102	9.804309681074288	0.04116519712861781
2.910331	1787824726098108416	-0.0006772707367042924	-0.004016600696102876	0.0019825481155169053	0.1460909685758723	9.867717348709142	0.11810021483372306
2.918627	1787824726107108096	-0.004435779046499121	-0.00100996619508513	-0.005588251965734	0.037058522599985655	9.75659720059588	0.08660240976925118
2.924046	1787824726113108224	-0.001418812851527419	-0.001538405377218492	0.0020335744083186226	-0.16243696703034446	9.785492415196321	-0.013364774289670938
2.927974	1787824726116108288	0.0025305052241646414	-0.004171409254914911	-0.0011020590279519013	0.09913027379402801	9.880198372826433	0.002427517599437845
2.934816	1787824726122108160	0.0010324359932369605	0.00023157108619045394	-0.0007699235911117472	-0.02400182109657367	9.951922990258362	0.08091916010605607
2.936129	1787824726125108224	0.002398914032788232	-0.0027487495482427446	-0.0009338814426990273	0.023431498538801967	9.75911569770042	-0.052135327008104713
2.943307	1787824726131108352	0.0017098130757206616	0.0037365322913821275	0.002138431420619864	-0.06576540398126314	9.79473371163477	-0.10541983499124478
2.950967	1787824726140108032	0.001993645487608632	-0.0013959790968533809	0.0004947105015707095	0.010659483035994786	9.770448605721109	-0.1078425778330665
2.951467	1787824726140108032	0.00012240239366428452	-0.004149501660034135	0.0030366627365761654	0.03363774773019173	9.747780077289331	0.02460261969900867
2.956100	1787824726143108096	0.004279031918910783	0.0047457170195744445	0.0022128070719631245	0.062001867258667215	9.795180977794942	0.05319141832290505
2.956600	1787824726146108160	0.002686060862915924	0.002054291443734684	0.004130897779691121	-0.007593317880052609	9.806892838196053	0.08569196550370778
2.969288	1787824726158108160	0.0031418369600481628	0.0011046925590228966	-0.003997958382042259	0.02600808938082082	9.777290631344945	0.15524886870416504
2.974577	1787824726164108288	-0.0008116879071210152	0.0010055006158118589	0.0012825352628281987	0.03868381319994854	9.804644310679853	0.09227082164903595
2.979778	1787824726167108352	0.004175986672499893	-0.004961560754625944	0.0037900872180210202	0.05348419708532615	9.891930933150142	0.010010284341703637
2.983131	1787824726170108416	0.0034296274047891234	-5.152132867839611e-05	0.002402309896548859	0.1921086675062718	9.597298343243015	-0.05117966592160168
2.983794	1787824726173108224	0.004075271437665695	0.004609127756624325	-0.0020929282820838484	0.08072824030262589	9.772668543243103	0.0509238082852231
2.996376	1787824726185108224	0.0005362694726943883	-0.001495871896301484	-0.0012606565341890346	0.11881840617684489	9.91384337006296	0.08999526637238127
3.001844	1787824726191108352	-0.0004632899205566152	0.0015483775050236428	-0.0003777280474190798	0.049020103694499294	9.765989697570399	0.025182182113807676
3.002344	1787824726191108352	-0.0001557184368718507	0.00011156088147517076	-0.0033599699702397292	-0.1235851636893602	9.810722093398052	0.000322854618481284
3.005891	1787824726194108160	0.005620370623596538	-0.0012868961005378275	0.0020762440389918042	0.013226044462164969	9.590872463638823	0.03403807490408257
3.010867	1787824726200108288	0.0018131154175027855	-0.003619349645198783	-0.0019391127511198768	0.004103411117689015	9.718948564875845	0.019760122582426157
3.016740	1787824726206108160	-0.0002080209816166174	0.003305831848116734	-0.0052212975607338	0.17892494562115568	9.729165261901722	0.10142255439936108
3.018548	1787824726206108160	0.00333503686472413	0.0019412665635173316	-0.0016302392213015209	0.03146098527522295	9.89873433853889	0.13478553061890236
3.023489	1787824726212108032	0.000887560763769807	0.0012274179948503128	0.0065900113942358104	0.12873792652648883	9.795101022482886	-0.11755440657560823
3.032528	1787824726221108224	0.0024625896198994896	0.0047893476358234965	0.00018335656420638655	0.007418478613865529	9.889024715546514	-0.0702430834936048
3.035367	1787824726224108288	-0.0024571896040360064	0.001557779272137148	0.001402212434448202	0.07692033359119449	9.943956058493137	-0.031342253554181194
3.038251	1787824726227108352	-0.0032042392909604877	-0.0039752995315093425	0.003582840921505084	-0.04290451175971856	9.883825113369799	0.0315133939808518
3.044210	1787824726233108224	0.005416373653313326	-0.002805614842774865	-0.0022305091753491916	-0.05734665938603377	9.738927893782547	-0.09046427311714023
3.052916	1787824726242108160	0.00782625660319922	-0.004058402875844639	-0.00034847561161239306	0.07845236188194787	9.674933369178238	-0.08277480420398098
3.059538	1787824726248108032	-0.00270347653095248	-0.002453626259730927	-0.007387535921598142	-0.023396713255828105	9.813993844788166	0.19367487952131465
3.066445	1787824726254108160	0.0027212104657346483	-0.003032969389577119	0.004316583085551601	0.004790941292821977	9.855688705973513	0.11005285656872012
3.072029	1787824726260108288	-0.0016782299347784324	-0.003767981505144637	-0.0059121906611872745	0.0724562597475292	9.621009021339622	0.08599953723905636
3.072529	1787824726260108288	-0.0013072943849477758	-0.002496184649073298	-0.0016585604120132786	0.13715783975678433	9.737295101450638	-0.10937335038798755
3.073421	1787824726260108288	0.0018771967075198483	-0.002859697621417211	0.004950523703695511	0.019923115008190353	9.620400451322618	0.09687406555985284
3.082138	1787824726269108224	-0.005840340770481178	0.0029241840109446014	0.0008442701745342084	0.14618834034973743	9.684584328782313	0.03706755608737476
3.088206	1787824726275108096	-0.003037359011818735	-0.00872372258327031	-0.003348146820385798	-0.02413030256443658	9.792726515731387	-0.0711474639367081
3.094139	1787824726281108224	0.00013352218775624275	-0.0030061879036142754	0.0018518918827812349	-0.026769316484262475	9.74678893724198	0.15278232386511098
3.094639	1787824726284108288	0.0021547523367902574	0.0024163225413622383	0.0006868670554177295	0.11522195144081424	9.67914396450133	0.05063923987072483
3.105607	1787824726293108224	-0.002047853937126806	-4.778951904202682e-05	-0.0009841850051338194	0.00030991785363942374	9.680101936486619	0.020844463462579805
3.107536	1787824726296108288	0.0011826524242562753	-0.006645939103828281	-0.0005470734289116646	0.04229673901661899	9.80908380797396	0.06357381484771622
3.112657	1787824726302108160	0.00553072261285668	0.001523647695256429	-0.0015697812059463877	0.03015481761621999	9.730361921823713	0.04196407785594338
3.116763	1787824726305108224	0.005236839352656327	-0.004184390488066798	-0.0017538685047423187	-0.05533662117883394	9.829878160311255	-0.10824842138029572
3.122228	1787824726311108096	-0.0016098768266766385	-0.0031191724082745603	-0.002550423609461024	0.1298998505938278	9.71345414843803	0.07119604952555954
3.127561	1787824726317108224	-0.0028689207984793023	-0.00026311951509546555	0.00017158632964247317	0.12591882234408155	9.936114684628977	0.019518538388829776
3.130263	1787824726317108224	0.008010982138107343	-0.0012270911592054136	0.00013149791145226374	-0.09833177173864609	9.842136351369208	0.182127465122957
3.131521	1787824726320108288	0.0014050907759991446	0.00492506054853668	0.0006139842994963139	0.07470141401126354	9.748206024441608	0.13589921498307694
3.146054	1787824726335108352	-0.0018327738191596026	0.002694251645036243	-0.00020327643643738784	0.09339664991987846	9.792936258556235	-0.05487276880962418
3.148169	1787824726335108352	-0.0003829251689090733	-0.007268921888229847	0.0002448376912079756	0.09030857637233819	9.844429586843164	0.0605116005790189
3.152144	1787824726341108224	0.0017547597007104875	0.0006079794060980821	-0.0018185383362082958	0.10726118325748758	9.777715633576374	0.10650419559627497
3.156896	1787824726344108032	0.003542940352535388	0.00044484840727189554	-0.002425075229465111	0.06527326716005774	9.744445151080553	-0.01613340323789661
3.165004	1787824726353108224	0.006732858231417493	0.0028592215852595543	0.0066226372197111805	0.06052622780354379	9.872185696888517	0.08282458630870111
3.170125	1787824726359108096	0.004625428582700436	-0.004754042064386748	-0.0027718940620760275	-0.06387217093772743	9.934210596869285	0.11674674692915958
3.172060	1787824726359108096	-0.0008655308338718327	0.0017834145116567943	0.003583254242703716	0.004346397845619654	9.723018175194795	0.11185503785329712
3.182595	1787824726371108352	0.001301029235256695	0.003733380440118422	-0.0008929828369627587	-0.05333028265906285	9.892115679547395	0.11122882680390823
3.184520	1787824726374108416	-0.002077841548007788	0.0014010946349956015	-0.0007766913950299603	-0.011860694376880615	9.77035069088979	-0.1352701179121582
3.185063	1787824726374108416	0.00018385487109282624	-0.0037146727926424873	-0.0009629009153487534	-0.022366154469084507	9.792249432611893	0.0022034790346283414
3.197749	1787824726386108160	-0.0018484262430070132	-0.0009850204359473783	-0.006033062759000972	-0.03419654268020218	9.807320485531653	0.05195074359453568
3.198249	1787824726386108160	-0.0013260401285795258	0.0015105183218296194	0.0010214277906557309	0.05588839055068988	9.626122485753346	0.12859252459558312
3.201060	1787824726389108224	0.00039228224534608626	-0.003233845135585343	-0.0018934903695386083	0.06399692869813833	9.635808544599403	0.030500906564170815
3.213656	1787824726401108224	0.0001718210090737867	-0.005173700049885948	0.0002037718944574365	0.05768338305575151	9.802623710765811	-0.04432596346577586
3.215046	1787824726404108288	-0.004542318555201784	-0.0024092262575859556	-0.004149926661070975	0.028731677884629665	9.634034835572638	0.12513574277592474
3.221076	1787824726410108160	-0.0009979842380050778	-0.005076730108781245	0.002070652076844481	0.14525740241420765	9.762888069385195	-0.011491256808229265
3.223843	1787824726413108224	0.0020949622954672224	-0.0038425136288635126	0.0006680452461784941	0.06545202028347323	9.904537845430374	0.0495925302036573
3.229854	1787824726419108096	-0.0013666779105196774	0.0024421517987177305	-0.0010482359620678477	0.02643344005343451	9.648008965909002	-0.04890451108945578
3.232391	1787824726419108096	-0.003911809462957222	-0.0044442060649017	-0.0037621942017851168	-0.05684481199540212	9.770414831235696	0.04055902572811329
3.242475	1787824726431108352	0.005784099491493779	0.0033821838469132275	0.0016683775990595636	0.07327778278286114	9.831534583483867	0.10035169668140942
3.249334	1787824726437108224	0.00011206284353103155	-0.0018502133825590284	-0.0003665715152176613	-0.06573417324508628	9.66293423820823	0.12590525158550692
3.253442	1787824726440108288	0.000253573876970815	-0.0030702813000854446	-0.0012624891255133852	0.018786184900535043	9.817098408347603	0.10067927726542011
3.262561	1787824726452108032	0.00485621972978624	0.0010971147211328038	-0.0009616389746613937	0.06245778331034938	9.850384775997828	-0.058121841278322046
3.269765	1787824726458108160	0.004706127002339634	0.00011634393077752331	0.0014737640428175568	0.07061612257544633	9.878429319493172	-0.07627995497522658
3.270265	1787824726458108160	0.0024610260569788746	0.0009519626706349178	-0.00315562002568803	0.02778248665050846	9.788786262890193	-0.030644282060452714
3.277887	1787824726467108352	-0.003330527458058941	0.0007879540249409931	0.0014775034370143993	0.13506129677684717	9.762286433764887	-0.061443061328391696
3.283486	1787824726470108160	-0.002529001232256623	-0.0006664107463515296	-0.0006019319077233026	-0.18546705163444288	9.651447670781383	0.17102442585183739
3.283986	1787824726473108224	-0.0017686346176880982	0.00533918033957669	-0.0021383148115318184	0.04360286558482301	9.682145477854114	-0.001660108621727348
3.293226	1787824726482108160	-0.0028676149598850604	-0.002263925487880182	0.002880738734847918	0.02617080749795416	9.807843073051428	0.08563751620679769
3.293726	1787824726482108160	-0.001767553584499454	0.0005964337256820652	-0.0009213613475229139	-0.031404667177093115	9.679744084720731	0.028444084603878837
3.305482	1787824726494108160	0.001186357738087013	0.0006996789557362994	0.0039895277177397145	0.01007808132874303	9.68222261261426	0.09691461517646047
3.322745	1787824726512108032	0.0024021407453572482	0.00011729265340297513	0.0006084320317052648	0.10154151884885244	9.73127273322618	0.05467680537180267
3.326479	1787824726515108096	0.001577074808591551	-0.003881804688549393	0.0014933416649287171	0.10692969752173712	9.80794857051638	-0.0023559539669929883
3.327155	1787824726515108096	0.0006197669058367163	0.0020590483355172984	-0.004033485348399583	0.12518015888943199	9.79337484610419	-0.02482415668282566
3.329927	1787824726518108160	0.005367849704431246	0.004964821410726021	-0.0016850939090172325	0.08214847712817218	9.791925757323547	0.16626159335906754
3.331421	1787824726518108160	0.002323876800599727	0.0066848794634006975	0.004147783757328829	0.20898814622017234	9.745476503663438	0.11497439758055117
3.338327	1787824726527108096	-0.000896670379890018	0.004356467412442862	-0.0016308166034310744	0.00266411580534679	9.73901772579814	0.09163809089770905
3.344101	1787824726533108224	-0.0016416786875377294	0.0046067703726457515	-0.0034204578747173866	0.18045176876946825	9.787879805758116	0.17938316186083325
3.360757	1787824726548108032	0.000241342539073679	-0.004995990841901293	0.0017337200123518873	0.011137958074508953	9.605382441062899	0.00885431056246974
3.361257	1787824726548108032	0.006251062158785644	-0.0015480913628790412	0.0019206007533732583	0.10724379661508997	9.79718430745345	0.06894876313538421
3.361757	1787824726551108096	-0.0016976758778640844	-0.0011879302665988912	0.0020710810348305774	-0.0933162070666582	9.641026388532989	0.13251702313295075
3.370383	1787824726557108224	0.002387096403790199	0.0009944550848339357	-0.002084537478847681	0.043065089469844005	9.767813658122934	0.14520930622903203
3.373720	1787824726563108096	0.0010370554397366358	-0.0031435693704846986	-0.004911657945638898	-0.030522075017456827	9.820730482975454	0.0654434443407875
3.381962	1787824726569108224	0.0055933849820119655	0.0047023542423922015	-0.0029496315872002236	0.02400684828558948	9.93418927470093	-0.0038896435999806072
3.382462	1787824726569108224	0.0021053461503655526	-0.001925703845962472	-0.0020901141644672347	0.01465332437470354	9.653146082334446	0.07536122826693101
3.393621	1787824726581107968	-0.003806116019456176	-0.0017716526315303086	-0.0027023926983189036	0.0606797151148935	9.8088781896101	0.16604487352153013
3.394121	1787824726581107968	-0.0011046779984300174	0.0013145677602544048	-0.003307147471287902	0.017578376211424256	9.852120418565008	-0.004648118822545543
3.401554	1787824726590108160	0.0013380441552879976	-0.00258031116300217	0.0030036688770234896	0.1682309243735651	9.883575696241396	0.0016947385764399213
3.409248	1787824726596108288	-0.005754100118507515	-0.0014894470812233484	0.0035866777252970294	0.16398571755831348	9.753429445110978	-0.09492589320701539
3.413103	1787824726602108160	5.673818829736698e-05	-0.003011255796244757	-0.003329106785460277	-0.06723600743507725	9.841639290581844	-0.0024652841734898443
3.418374	1787824726605108224	0.00021719615204995185	-0.002569039341443427	-0.0010100603650440253	0.06419871119646467	9.690710624583364	0.11433335921656787
3.428298	1787824726617108224	-0.002240111415224924	0.005523273380387731	0.0002454191757094064	0.051521644559697224	9.780910898061913	-0.0020489994783296902
3.436362	1787824726623108096	-0.0012619677585835889	-0.005560614690823903	0.004026429998799454	0.09523422863180253	9.68064873564966	-5.596478821417647e-05
3.436862	1787824726626108160	-0.0029782433858084397	0.0021030774657956166	-0.0006379193657091174	0.00011911978379812492	9.933173354773894	0.01509601313817837
3.440923	1787824726629108224	0.0020805061514856506	-0.003045438021032292	0.0004806864573370556	0.013295949600352377	9.725250166353588	0.10519452060909264
3.446047	1787824726635108352	-0.00161014009287529	-0.006167002691376608	0.0006348109688512004	0.019376676681087755	9.867866914308687	0.08254323214149546
3.447810	1787824726635108352	-0.0016954015928254051	-0.0036968825111822886	0.0016844231339868444	0.07695912827079647	9.703860943766816	0.02227336080016307
3.454106	1787824726641108224	-0.0017758396952923475	-0.003268864791318153	0.002712971892184541	-0.02221011457414146	9.812543951478878	0.0693354132294676
3.456516	1787824726644108288	0.0014545028915313879	-0.0021811926321078125	-0.00171145464910984	-0.05041835842430829	9.644277686870847	0.10435147740627818
3.467714	1787824726656108032	-0.0008553019947767253	-0.00944197506865516	-0.007815035848714461	0.06530935787967827	9.791809155837855	-0.12762888624214566
3.468214	1787824726656108032	0.004359226547818853	-0.008603282630932383	0.001607475581890769	0.030726951537259392	9.723505610125539	0.03524287803520991
3.475531	1787824726665108224	0.002136356054310047	9.191175751841779e-05	-0.0056794954070466955	0.14368511326954783	9.744165276390422	0.01940570405914295
3.476031	1787824726665108224	0.004157751767076048	-0.0049323013091554764	0.0024483610480282554	0.11140546546581162	9.815526618968669	0.1372999691552304
3.484308	1787824726671108352	0.0015658786403407417	0.0043943165815004915	0.0020296752421394685	0.06108767060524817	9.896972365043137	-0.006123056674833465
3.486413	1787824726674108160	0.0030350555447108316	-0.00412115501973331	-0.003568418154888021	0.0389864679224426	9.66221621700687	0.04989313055818088
3.487040	1787824726674108160	0.0016390360010586278	0.007074608153605192	0.0006763144596139942	-0.003262398151287099	9.830041118042669	-0.1004038376585872
3.500557	1787824726689108224	-0.0013973134345774134	-0.0006182538422035513	0.0032202012891468746	0.09582372066862747	9.653190399658692	-0.0434172392372044
3.501057	1787824726689108224	-0.005362992932462262	0.0016460737680903412	-0.0027877626340842773	0.013543859704879	9.731211849901499	-0.07435280012822675
3.512271	1787824726701108224	-0.0019397657921039427	-0.0015170767719625605	0.003647290063888925	0.0029601327130917565	9.884651383613614	-0.1158299795100284
3.512771	1787824726701108224	0.005038967626279935	-0.001642616558321597	0.0031506726253839505	0.12966335443036933	9.875358711037967	0.18926099713109418
3.515670	1787824726704108288	0.000371397977102238	-0.0013658299867143533	0.0009428813312552132	-0.019107635111212808	9.83006492549819	0.09734314407901856
3.520179	1787824726707108352	0.0028723977586830856	-0.0013544602727660368	-0.0002611561898948798	0.04729085483035693	9.69522717875433	0.12673571105742246
3.524294	1787824726713108224	0.004492847302650518	0.0002806949506389892	0.0029110608338566613	0.034540950900886484	9.748667240171217	-0.01568104862020539
3.531554	1787824726719108096	0.004706877312893112	0.0018165110082868196	-0.001997915169238771	0.07621487110442128	9.695586315583002	-0.056755107320183205
3.534664	1787824726722108160	0.0010638869994024957	0.0048296639942460055	0.001097414947703812	0.022408869518243744	9.59524345397873	0.026502989336462498
3.542755	1787824726731108096	0.007615103326092708	-0.003148486404308878	0.0014756643248740335	0.11670024132362997	9.771138994388956	0.07214677394590362
3.545454	1787824726734108160	-0.004218298996503071	0.0011510767446293703	0.0019409133044749698	-0.07180687915744755	9.716953277290594	-0.104083136575846
3.551706	1787824726740108288	-0.0016085183950804221	0.004760269066582627	6.680944734004836e-05	0.2003982614183506	9.748520806434644	0.062303354039662244
3.556321	1787824726743108352	0.0019175762832003217	-0.0023398021034417567	-0.00018908686042407044	-0.0013953826541264203	9.85980457685015	0.11047655906923937
3.557497	1787824726746108416	-0.0016730805896058016	0.0015987362953625549	0.002237796553627708	0.1745814941647873	9.718909070454359	0.016042266380834502
3.563664	1787824726752108032	0.0004044965282512113	0.005988862871972699	0.0007429779896695303	0.006376520855883313	9.868108756871884	0.058039961270634134
3.569941	1787824726758108160	0.0003919432535825558	0.001147307236074287	0.0014447452278752062	0.13591808626144514	9.769995736606697	0.09687787324516767
3.581324	1787824726770108160	0.0015415478038539009	0.002363939560086778	-0.002660905745839043	0.06459322117388967	9.722696922055126	0.0942657349578199
3.581824	1787824726770108160	0.0010456522542768522	0.001125451751859418	-0.0017149852776482965	0.14804873558832846	9.599825946918694	-0.004812977014415749
3.587472	1787824726776108288	0.00017551144331501674	-0.003887301607564484	-0.0004878032227202978	-0.0679956797826392	9.819320935970323	0.10997884198117151
3.592552	1787824726782108416	0.0007222564532412386	-0.001418446321546731	-0.001042643251008159	0.11417016065429127	9.7620255194737	-0.048941453716957024
3.599227	1787824726788108032	-1.45375816971342e-05	-0.0011779308199899728	-0.0011032601757755113	0.06875762695191631	9.755990829303293	-0.044462824925728145
3.603044	1787824726791108096	-0.0035470352910381884	-0.0039032410798373676	0.0044714113902496015	-0.03372530296814233	9.684725703019055	0.10505152172800401
3.609175	1787824726797108224	-0.0037374541695729306	0.0008902668342418179	0.005771947160449326	0.05276704624519157	9.878052737673375	0.20778245053721894
3.609675	1787824726797108224	-0.0004946583215386104	0.005683323552201279	0.0002972205886248421	0.12143185310281489	9.797275793784811	0.0556231053225889
3.617892	1787824726806108160	0.0025936931351985978	-0.0015255696940388098	0.004473614802414561	0.13692559802692283	9.708906155392445	-0.08579122241778991
3.625060	1787824726812108288	-7.207532546465944e-05	2.9470841270336496e-05	-0.001676893814448328	0.17278746734738876	9.746918299663296	0.027820266811658792
3.625560	1787824726815108352	0.0018724236328971052	-0.00011628176219751536	0.00514394919861732	0.108264328296315	9.766841434114736	-0.031541587625905976
3.631145	1787824726818108416	0.0016580311382435923	0.00014240854825947865	0.007903023742983824	-0.02785343685773102	9.8700022700114	-0.0888750182505405
3.635612	1787824726824108032	-0.0030043133882089105	-0.000739078162964768	0.008297878627537943	0.028610621841878927	9.771507855828796	0.20498936082797753
3.642110	1787824726830108160	0.0030852099343882393	-0.0035213456117608945	0.004094795206231976	-0.010995583889928268	9.909010944212076	0.049231125624634664
3.645912	1787824726833108224	-0.000910613684235826	-0.0016390337972723428	-0.0022130910540369515	-0.07313981756646899	9.728459838602827	-0.018378783801198034
3.651145	1787824726839108352	-9.16075442349245e-05	0.0027836575216487343	-0.0037633017877041646	0.010619551275991465	9.970612576495716	0.05836154735071559
3.655893	1787824726845108224	-0.002376951414653094	0.00020412523364985862	0.0008385499827381418	0.22729972458203918	9.756956104017341	0.1561084427254747
3.666004	1787824726854108160	-0.005081201773715615	-0.001926285969415482	0.0016094891864713958	-0.002319863822864433	9.732661266370396	0.03799788886113774
3.670356	1787824726857108224	-0.000938004844914922	0.0013365057192801038	0.009714336414483042	0.02102324123697216	9.846980579218519	0.11520737576692412
3.674586	1787824726863108096	-0.0004578935857042133	-0.004933151584149236	0.004704900577890277	-0.0020691831872315086	9.84020783876678	0.03479950570087162
3.675086	1787824726863108096	-3.535015013166759e-05	0.000252741575970457	-0.006006508961488803	-0.002629114046950384	9.856397934234213	0.036685606038389294
3.684050	1787824726872108288	0.00031593126675415255	-0.0015124580475172024	0.0015898528389095476	-0.026449577360052504	9.831903852234378	-0.09897026442077636
3.685301	1787824726872108288	0.011465921478628816	0.002506767877449589	-0.000950976791237879	0.14106089823463464	9.846180121437484	0.1209609338400377
3.687403	1787824726875108352	-0.005513148672151076	5.4685545735546837e-05	0.000374828688749146	0.07015310697260782	9.819162609928682	-0.09525384705432854
3.699894	1787824726887108096	-0.005887985991701017	0.0027526044847684316	-0.004510569151071222	-0.09523991787327385	9.853670268023377	-0.06711642187992366
3.700394	1787824726887108096	0.003582118722740358	0.00239828329411327	0.006511676211100299	0.08021777424455713	9.743144365081665	0.03325476559183168
3.706560	1787824726896108032	-0.0011248296962417484	-0.0025120392617904285	-0.002736987016179456	0.088576617365771	9.857562992214278	-0.0167839320995905
3.712158	1787824726899108096	0.00342975310095546	-0.002444015213308307	-0.002730511867169934	-0.013431958745941166	9.927529043467215	0.002371017039993763
3.715892	1787824726905108224	-0.0009333039155737398	-0.0010415378777095096	0.00017976456479581375	0.1481020420799973	9.754629186866117	0.07076539925628376
3.723660	1787824726911108352	0.00015943272268948723	-0.0017482184281214462	-0.0041760184629555715	0.05416665780214938	9.746216123154852	0.04033479544705694
3.729053	1787824726917108224	-0.0016107708103906097	-0.0005598777529493061	0.00201421452327261	0.11966754460311485	9.643117446878723	-0.029848647959067828
3.732170	1787824726920108288	-0.0025511163772996294	-0.003283297415001009	-0.0066545739577222335	0.13361951814250475	9.722275299382895	0.06697508239994794
3.732670	1787824726920108288	0.00017929011802130375	-0.0003030237311931648	-0.001174239074434091	0.07464875497199108	9.754447000621278	-0.01295487079334015
3.740046	1787824726929108224	-0.003402157868334797	-0.0002277544083701901	-0.0001375401841014659	0.12610158185128378	9.746829504719718	0.06216202735411073
3.749449	1787824726938108160	0.001063665220917232	0.0006453373469667983	4.502083693855843e-05	0.06412906073317816	9.74253544565033	0.14901979370720272
3.752077	1787824726941108224	0.0038600871986795224	0.0012016399393915132	0.0024615424475112253	0.13012823584324246	9.815092512936367	-0.01128818739651581
3.757908	1787824726947108352	-0.0009698918294038149	-0.0044876390969370026	0.0018260268988784232	0.11793564419581995	9.646476978418272	0.1965983797078389
3.758408	1787824726947108352	-0.00048253231131241295	0.00034883416203708727	0.003123460379297483	0.020374575102707338	9.716321890190477	-0.09883279348728884
3.761817	1787824726950108416	0.0021200505764033474	0.002794540650631775	0.0045881186351697046	0.08640957380201666	9.815992589058144	0.05193326533323359
3.773389	1787824726962108160	0.004514147402899472	-0.0021687361685163143	0.0019614210538453367	-0.08961457596069337	9.803754034634968	0.06040506563405233
3.781590	1787824726971108096	0.005701526354430468	0.0036588273436028197	-0.0005612888121789528	0.24434973338374275	9.853400405656515	0.11893076718240725
3.782090	1787824726971108096	0.004709455752551334	-0.002979744792261018	-0.0002840690276986258	0.08364615253107618	9.845707352850159	-0.1185275619343136
3.791167	1787824726980108288	0.0028107706484810312	-0.0008233354764639872	0.0021204157448837624	-0.03376412344555081	9.93058592006291	0.008005287786912915
3.791667	1787824726980108288	0.006806826236949589	-0.0033673390863218607	0.0018643766713970027	-0.06598059270422245	9.794710063060899	0.03773635848968128
3.798121	1787824726986108416	0.003967068450681487	0.0025940981139643267	-0.0035001963250590904	0.10814411250996915	9.976614282570607	0.05367964438065747
3.800501	1787824726989108224	-0.0010124356498180916	0.00024144807574851972	0.0019125818654457324	0.03283665782551841	9.900815181541944	-0.04398480528594817
3.807777	1787824726995108096	0.004401457888469745	0.005035429967989103	0.00010423867037332726	0.09969580617703609	9.796515001881824	-0.05417567687735812
3.808277	1787824726995108096	0.0008388216136263456	-0.00076466883249619	-0.0030389985265905023	-0.07188075074870237	9.898721129332003	0.09259557403483838
3.815132	1787824727004108288	0.001626693400098805	-0.00765467184952533	-0.0004016771943876409	0.11109922378016261	9.678923509440148	0.06182807215038167
3.817126	1787824727004108288	-0.0006742411092562435	0.00033087544183610265	0.004273611707073634	-0.015575558902721887	9.891307272724287	0.09747301763463351
3.828202	1787824727016108288	0.0014115009618084877	0.004762592995604905	0.0003819850176108499	-0.059586059543973245	9.731826137238132	-0.033504135859212955
3.828702	1787824727016108288	-0.0007037457918042929	0.0017764285452325208	-0.0010631395893722882	0.05279596796377196	9.82340170260748	-0.00655360840464846
3.838012	1787824727025108224	0.003039030423904095	-0.0021160473231956636	0.0002539775180010796	0.13643083757245744	9.696604357076138	0.020824610971255705
3.838512	1787824727028108032	0.00036032641666511995	-0.0025560141739869196	-0.0030865443953529428	0.14571799596101798	9.777150898184885	0.071385102189127
3.844142	1787824727031108096	-0.002900476710030014	-0.003362282131412228	-0.0002726462516963713	0.035844331472049885	9.842960741241804	-0.031021054262824324
3.855363	1787824727043108352	-0.00013004657659191138	0.0025273662682091342	0.005504956218917107	0.038806889024320994	9.892148689102745	0.05086361278332341
3.862755	1787824727052108288	-0.0022299174682367906	0.000817763176388382	-0.001509879488863129	-0.08179616216251735	9.739104982888803	0.11627334738365146
3.863255	1787824727052108288	0.0011354493126241967	-0.00043045390238715737	-0.0011984392965598578	0.06124507828565127	9.838841103214039	-0.010768542056296989
3.869966	1787824727058108160	-0.00027693661211457434	-0.001090455360407971	-0.0023019942514049124	0.08126685991826683	9.706913051182447	0.08939586107735525
3.874043	1787824727061108224	0.00164323855517474	-0.00677613648504053	-0.0012479012261154487	0.14971111904239193	9.814505357023513	-0.005264400814016853
3.877986	1787824727067108096	-0.0013152034838998536	0.0005713459124653497	-0.0030388698935966845	0.06876530130675734	9.80642003559327	0.044116290802396735
3.885498	1787824727073108224	0.0009600129616834248	0.002598220529469492	0.008266349843570027	0.08000498119365292	9.768914718475376	0.15582510810491165
3.885998	1787824727073108224	0.0037213996205836264	0.0014461589149979553	-0.002850023286653301	0.011219561540565814	9.603814128842162	0.07699702060242893
3.895591	1787824727085108224	-0.005998461289031844	0.0007338268440436627	0.00035964916797989174	0.02192052731438239	9.674061159864973	-0.04375288490009654
3.897576	1787824727085108224	0.001006352291772666	-8.605334939941134e-05	0.002395487986003639	0.10071243283780651	9.861422337128742	0.09118898448797094
3.898656	1787824727088108288	-0.0004933765389658368	-0.0008335280667964318	-0.0003518505186303346	0.21234344636088062	9.837460059739684	0.11710169385382493
3.906902	1787824727094108160	0.0012713697624273542	-0.00011321286657297679	0.0017030484045615153	0.20707068190790667	9.866027775323538	-0.010706776202513344
3.911929	1787824727100108032	-0.0010444298049083636	-0.00028998579030638987	0.004340014724977722	0.020724184016966987	9.864468826106172	-0.0478568002275145
3.914641	1787824727103108096	0.0019325591078706865	-0.0009544860489056449	-0.003549047679810376	0.0516753655511769	9.733836208744215	0.09262278656632755
3.921907	1787824727109108224	0.004450069793471028	-0.001996130606786306	-0.0026470775657663546	0.08080516080212699	9.763787447897858	-0.030161601798699922
3.926114	1787824727115108352	0.00032745781685856567	-0.0009896834614407	-0.0010080235052939187	0.03593146997778715	9.88807430104805	-0.07778866596557721
3.937378	1787824727124108288	0.0009915540859087662	0.0029004258770622847	0.0015928409479718506	0.09677841471768099	9.824537605007865	-0.04204673373676548
3.939443	1787824727127108096	0.004880537305016752	-0.0005044046096835563	-0.006479367859091109	-0.028797851229661182	9.76974648973366	-0.08252705964573055
3.943667	1787824727133108224	0.00048284585580707834	-0.00257810508645419	-3.999690980750997e-06	0.08347104813800013	9.80375349760742	0.04494588316576632
3.946048	1787824727133108224	-0.0032677833573102476	0.005656050009747331	-0.001793831174676758	0.03252603883895556	9.734761355929821	-0.12044412086871306
3.958619	1787824727148108288	-0.0013310713320975908	-0.002038923013629534	-0.0022923570026587682	-0.03232000407694893	9.54976773932766	0.027658482256189273
3.959119	1787824727148108288	0.00787268140528549	0.0031725654698147297	0.003006548636695984	-0.012858472884330901	9.754790781687243	0.0876882838803813
3.960564	1787824727148108288	0.0033962512094984176	0.001818902654548534	0.0004602838847304027	-0.007910999770254449	9.851381786655411	-0.000604314154058997
3.970073	1787824727157108224	-0.002631965627400042	0.0007608769949814979	-0.0037420511696130035	0.02460652890886352	9.828797326148944	-0.040306328944456085
3.972196	1787824727160108032	-0.001662432272528289	0.0016468443642816961	-0.0008953543464706202	0.11681230351317473	9.806027081239433	-0.0678215130344198
3.980444	1787824727169108224	-0.0004796298064900465	0.002451522069299126	0.0005923353696532022	0.18316481423848163	9.578440423710326	0.02067415837682486
3.982436	1787824727169108224	-0.001431183199565621	-0.0009393259360937104	0.0038658616980771013	0.11397956048779843	9.758217177353577	-0.004966835370427637
