# time_s	timestamp_ns	wx	wy	wz	ax	ay	az
0.003739	1787824723191108352	0.0006292231649311096	0.0009940958653780702	-0.002721485077576868	-0.008921502973858124	9.852380066576181	-0.011082915213992711
0.004668	1787824723194108160	0.0005935186829900583	0.001317044093497227	-0.0014497404313134421	-0.000770829368305033	9.77935418691635	-0.0390202844255486
0.012706	1787824723200108288	0.0011127848214205422	-1.610379394810888e-05	-0.0026577682445896042	0.009001621715328399	9.862071844722424	-0.06468721743444178
0.018081	1787824723206108160	0.0012339781561179583	-0.0006699315780270901	0.00023405122914589802	0.04789890639707962	9.881790890395008	-0.03147955933061142
0.023092	1787824723212108032	-0.0018922268801568874	-0.0004223257706204649	-0.0001833754436193882	0.05769461830944696	9.809536873718987	0.007094239514044337
0.026725	1787824723215108096	0.0010580863331514324	-0.0004056801433544059	0.0004380251782928791	0.08164198566440539	9.90506920821408	-0.007236261958120875
0.033104	1787824723221108224	-8.608526216198922e-05	0.0029482741096139363	0.0004043873742704584	-0.016950738253864547	9.807034483881731	-0.03542681568639709
0.037154	1787824723224108288	0.0033263675945001043	-0.0009039161879670195	-0.0011623980355852511	0.06813579613079834	9.809700382728389	-0.01030958621155183
0.040871	1787824723230108160	0.001583471064366872	0.0005524300476502053	-0.0020605331561973942	0.07384318796886571	9.93458537845105	-0.02235253616610771
0.048838	1787824723236108288	0.0007006479404499265	-0.0013311014290922128	0.0007911830863282982	-0.04423703105698186	9.863004685087251	-0.023669020033315835
0.054760	1787824723242108160	0.0005359078535851597	0.000388686963257043	0.0014872711915095598	0.03593758159280001	9.870600955445703	-0.03906869853912757
0.058319	1787824723245108224	-0.00031262791414204315	0.0005042822336861628	0.0013097059448788603	0.099559873318346	9.854986776649968	-0.04508572847706503
0.061141	1787824723248108032	-0.0037891750934195205	0.0004861051510278297	-0.0018898918834947757	0.012277261492746678	9.87098125373357	-0.034530805737294175
0.069481	1787824723257108224	0.0015196537313505014	5.424545234640905e-05	0.002131700674006842	0.09858598154647172	9.88505848859623	-0.045255180516506455
0.073258	1787824723260108288	0.00259402029219494	0.0019277310413341518	-0.0009188879166030133	0.036581537475499054	9.811133380172773	-0.009480664467236787
0.079915	1787824723269108224	0.00047321598838893366	-0.0007552949309673762	-0.00027593267041354163	0.038962131188747993	9.876637208996097	0.003717698474733952
0.084196	1787824723272108288	0.0011719518709151105	-0.004746735615388382	-0.0004385989765480501	-0.01740630329872056	9.846125410381301	0.031065654225646236
0.087183	1787824723275108096	0.0017229116847465582	0.00023656130686009987	0.0004058670682848019	0.010868066191385608	9.835825917551455	-0.000628982018393013
0.093670	1787824723281108224	0.0007190951127580816	0.00047684006155756587	0.0021403471688193807	0.04918657465687267	9.870388426619236	0.009751157244693498
0.098487	1787824723287108096	0.0007194569115530874	-0.0004938050038332668	-0.002447876080531173	0.1405115104706276	9.831721273007608	-0.09197666619024437
0.100542	1787824723290108160	-0.0020580181784532426	0.0019928422855997776	0.0024107410789470807	0.007775592336459011	9.805062342809162	-0.04573322334590206
0.108293	1787824723296108288	-0.00034038186517848767	-0.001434211478974251	0.003220333417391564	0.033940858492484675	9.808494796639037	-0.0854615306733675
0.113334	1787824723302108160	0.0006638811309920839	-0.0009748670314679978	-0.0007194899005158784	0.028684284724235808	9.815650110528837	-0.09067594021035424
0.119344	1787824723308108032	-0.00140605926177612	-0.0006636474238707164	-0.0011383785955722033	0.05524860035515104	9.89931858238995	-0.02806005837488936
0.123184	1787824723311108096	0.0015176113035530118	0.0006330423021093747	-0.0020037497879701466	0.0005973453068705142	9.841811315234862	-0.09211787005739172
0.124939	1787824723314108160	0.004331156333591723	-0.0005704308734491583	0.0009955203277335215	-0.03691602537043054	9.741852996606156	-0.01974420441162195
0.131659	1787824723320108288	3.40222582195449e-05	0.0005310894368033456	0.0010037510617719493	0.048544775631574305	9.886115330513546	-0.020883296569404613
0.137333	1787824723326108160	0.0015430517217355714	0.0002778409063113583	0.000667295481153525	-0.0020352734624826535	9.825005245016001	-0.03181740136103997
0.143130	1787824723332108288	0.0008043020980082085	0.0011139411774561882	-0.0007858900178116236	0.05213378074953312	9.807203311999217	-0.009940272215167946
0.146988	1787824723335108352	-0.001198929219167065	0.0033676833919294063	0.003192113877180594	0.008222174900294397	9.833882369251905	-0.039376345284669795
0.154435	1787824723341108224	-0.0021472341584537757	0.0004412420231886252	-0.001235458755741492	0.05752068753156116	9.799680884665907	-0.03400647409697936
0.156542	1787824723344108032	0.001878317531477034	0.001215189929553436	0.0009082425258116714	0.01712708849796289	9.829661581911989	-0.1242186583681047
0.161065	1787824723350108160	0.0005056260317076371	0.0006735518117044985	-0.00026366207859976977	0.0681675181810838	9.820937149210827	-0.01832117754712322
0.168005	1787824723356108288	0.0002926180625477851	0.0016018040870053353	0.0020733582608882715	0.022445686389574924	9.781545659178452	-0.05324203722665469
0.171258	1787824723359108096	0.0021416863095311354	-0.00024966857404448717	0.0013999985482794073	0.0711731116075725	9.770099045050715	-0.04475811861309991
0.177619	1787824723365108224	0.0030677057916397186	-0.002228961676260432	0.001035844641368303	-0.027410788204011535	9.839476694671879	0.063416170989632
0.182864	1787824723371108352	0.001475780100735093	-0.0013058825796919864	0.0005545097561965679	0.05537080135153097	9.858074001226427	-0.0874154835698869
0.188348	1787824723377108224	-0.0005409313123521047	0.00011311985604125951	-0.0003045483715677318	0.017971163502125437	9.885779442629595	0.046810196540977206
0.191178	1787824723380108032	0.0012128322646886077	0.0013095751226667894	-0.0009016387052983642	0.0012131319140244595	9.827762899708096	0.00428627995921934
0.196738	1787824723386108160	2.8372901147041677e-05	-0.0007563432117974038	-0.0005540731666119741	0.16088601703351244	9.897310030622577	-0.00919818188413861
0.201985	1787824723389108224	-0.0017153433345132997	-0.0009004078386232642	0.002238894278893196	-0.03020609813883514	9.798677549170128	-0.0587314000638994
0.208643	1787824723398108160	0.000234009119835283	0.0004522431689283709	-5.8520275274991504e-05	-0.007862678483788028	9.83907620719787	-0.14651357081494626
0.212941	1787824723401108224	-0.0009188809139395732	-0.003100632705860656	-0.0004383518079035529	0.0026462017173676106	9.79396380178258	-0.06560581312641312
0.217868	1787824723407108352	-0.0007862509639625805	-0.0021013447572801117	-0.001810189643041797	-0.004539542499601902	9.860076754357946	-0.029602045210127072
0.221805	1787824723410108160	-0.0021772954883490046	0.0014255180881710592	0.0012695086109727797	0.06072779244452928	9.886789667542033	-0.030828294327159125
0.227439	1787824723416108032	-0.0004711125410251291	-0.00265151277345122	0.0007099633436315174	0.0391926713582298	9.83079169489186	-0.0589488637685569
0.232938	1787824723422108160	0.0042962041654529765	-0.0008113244606227928	-0.00011534742768007043	0.012217830744500408	9.780551689576473	-0.05555217469854318
0.237843	1787824723425108224	0.00011703239635474706	0.004264503612952789	-0.0007953660544712621	0.05273220428269792	9.856979337283573	-0.0465226412310455
0.238354	1787824723425108224	0.0011320669129614627	0.002987954369882597	0.0014603861868207524	0.08224710866776272	9.86626468563165	0.03826991185630352
0.249535	1787824723437108224	0.0014497616378305116	0.0010311379549875549	-0.00023316470862248096	0.04703513438454459	9.792171474672118	0.05974256167317958
0.254146	1787824723443108352	0.00030213468814899527	0.00018134134665312738	-0.0012703141046889765	0.08504307690825608	9.830781513417879	-0.056036985472624715
0.258715	1787824723446108160	-0.0007127789484042476	0.0016134630781098056	0.00015691224451851247	0.09979957498248095	9.909303157114902	-0.02091612649424568
0.262279	1787824723449108224	0.0007992887972812215	-0.0024618757751348297	-0.0023035869040716724	0.023160473117771592	9.868802966263248	-0.004975496166749905
0.267282	1787824723455108096	0.0017153911714060525	-7.547999725247693e-05	0.001068644650842816	0.03035550558962656	9.865941458224789	-0.00940517453164105
0.271399	1787824723458108160	0.0019916682853325764	0.0014904582292072609	-0.00024690169580903376	-0.0068126797599491265	9.852468552940987	-0.03125133081823972
0.275779	1787824723464108288	0.0009372370514386375	0.0003309796772554541	0.0005565790213083317	0.01667314732859348	9.81395847652089	-0.025258732287411514
0.282081	1787824723470108160	0.0019053827435505995	-0.0002839778655964794	0.00013028758923201993	0.05968293666612087	9.823422886768947	-0.019969792841335633
0.287026	1787824723476108288	-0.003990725543198504	0.0010278003236973267	0.0025082716013743373	0.13289298775785635	9.88479344119813	-0.049413283142309444
0.292712	1787824723482108160	0.0013642195087943314	0.0012983965090870209	9.52092364582383e-05	0.05943402602683881	9.830584011909425	-0.059693648682495805
0.298055	1787824723485108224	0.0024578448112390237	0.001445896841874856	-0.0006223410764502934	0.08516329395892838	9.848119760879966	-0.09514209335272156
0.301980	1787824723491108096	0.00029310994742901345	-0.0015775671696226475	5.709923110920741e-06	0.05303333972764044	9.770263856679012	-0.059613941363848566
0.306955	1787824723494108160	-0.0013328864985248017	0.0008006509746999332	0.0009848602115257365	0.11326976850021045	9.788195429848974	-0.03693770227523583
0.313330	1787824723500108288	0.0005285639507307623	0.00033401524055983974	-0.0012288374265330096	-0.033035156093194434	9.893024391706806	0.03883546140238463
0.319068	1787824723506108160	0.0008835773863756578	-2.1247081897096792e-05	-0.0002707911374885099	0.043189164500466566	9.832833144611493	0.01618249243855544
0.322946	1787824723512108032	-0.0010418044741365283	-0.0019873974359682937	-0.0028875291111584525	-0.0396417739847582	9.798263863642658	-0.08032810245797628
0.327879	1787824723515108096	9.678023154035435e-05	-0.0023315909148499433	0.0012623822654911914	0.08605652300003644	9.79606845160836	-0.040015603305941366
0.329562	1787824723518108160	0.0004978405720125476	0.0015413051229461543	-0.0014966619573689513	0.026720000718388124	9.772196771678798	-0.04654972727740094
0.336343	1787824723524108288	0.0011765999150176916	0.0004983704838516653	0.001083039125062677	0.059550096659368584	9.838912558106303	-0.04215309399126354
0.341877	1787824723530108160	-0.0007424806531759393	0.0012124250450810214	-0.0006588981312523584	0.011049396007930787	9.838606601847	-0.05826423654480716
0.346463	1787824723533108224	0.003062091786801036	-0.00010887838729884401	-0.001867877523893954	0.048203613644349344	9.86970265348958	-0.04159268736265191
0.353730	1787824723542108416	0.0007769379668812356	-0.0017176378134663305	0.0007838650907292697	0.07988822083313807	9.873675358777659	-0.013312891713101155
0.357906	1787824723545108224	0.00010047991932368964	-0.0015874601744041272	0.00047280441583080074	-0.010843650711186086	9.840359146875551	0.020649077324805594
0.362568	1787824723551108096	0.0004895276073956049	0.0004498173051135715	-0.001618214985720042	0.08460649199069684	9.78240647876453	0.0906193238073771
0.367905	1787824723557108224	0.0027883359184382017	0.000365292300872831	0.0008158129322411132	0.006175448941879588	9.937506608773377	-0.0169314793916879
0.371690	1787824723560108288	-0.0007582085953039089	0.0009668888056351431	0.00048643443987193716	0.04735446964089369	9.816419646472117	-0.03681647967472296
0.374440	1787824723563108096	-0.0006905190607736487	0.0004160478424386103	0.0017281008407254968	0.08428515633216385	9.809301866810445	-0.07269282783661224
0.385278	1787824723572108288	-0.00043841373359646544	-0.0005634152142277622	1.4681630912503987e-05	0.014877431923488265	9.83345555571497	0.022033261118157038
0.387368	1787824723575108352	0.00046439789278741753	0.0022809472571437652	0.0006137318726235871	-0.011756664175407786	9.8437598186711	-0.05370494437889603
0.394645	1787824723584108032	0.004161480115836101	-0.0012901399428913872	-0.002735379562583993	0.08959955709248131	9.749537558101634	-0.032132665303558496
0.396656	1787824723584108032	-0.0018367120694465686	0.001331877625440529	0.0010053168793732379	0.0884019739207521	9.85483614574892	-0.05087774954397781
0.405015	1787824723593108224	0.0018156427855488013	-0.0018146409230722076	-0.0012764823363011681	0.032598526226343974	9.878580324479314	0.014730238702063969
0.408143	1787824723596108288	7.728259060889359e-05	0.0013151299837625924	0.000847463897822175	0.03475505324986928	9.890260698295151	-0.006695716496334429
0.415653	1787824723605108224	0.0022289906252603233	-0.0006367071922301288	0.0007477528235791517	0.06206430741873367	9.821718722749905	-0.08733126717073246
0.420800	1787824723608108288	-0.001391979611409545	-0.0012970828135038988	0.00045056545945686957	0.03240501669815855	9.830614915739831	-0.15704554955808256
0.424012	1787824723611108352	0.0028575542544941523	0.0034685523875155897	0.0008893233024144327	0.09858700391006628	9.803990210953913	0.07967403536027763
0.430186	1787824723617108224	-3.295745897935412e-05	0.0017540474818134996	-0.0027851111768638975	-0.04773334108721189	9.863191039336154	-0.021270172421144914
0.431040	1787824723620108032	0.0015069190505575794	0.0027610903812350924	-0.001468225964696421	0.04250560426603821	9.81438722097857	-0.0178323605855742
0.437626	1787824723626108160	-0.0010036318098265594	-0.0023007500939779936	6.405721451059761e-05	0.06820396203022523	9.795760571124866	0.062396721933276986
0.444914	1787824723632108288	-8.96595561511469e-05	0.0014497361771970954	-0.00045165723829693503	0.08679767401779687	9.791252665203872	0.024739288554355712
0.446559	1787824723635108352	-0.001554454484038674	-0.0017346973119935203	0.0012428380868453677	0.00991659453681995	9.839237300828477	-0.09997376748727498
0.453230	1787824723641108224	0.001103737358839976	0.001681527675855729	0.0027347549479589924	0.0379786613223771	9.796663444159032	-0.0385165502148191
0.457279	1787824723644108288	0.0028059398453779026	-0.00015788487502591857	-0.0017778968153793514	0.0532848910168873	9.792896669528515	0.02384905832771983
0.462465	1787824723650108160	-0.0004935840117678436	-0.0010915335737882584	0.0002547137043454863	0.02463881757816172	9.865965940047543	-0.03308203650979824
0.469950	1787824723659108096	-0.0016619028574134328	0.005000154578143724	-0.0011843566307607961	0.046818339929191204	9.840193972895278	-0.026513181800189235
0.473064	1787824723662108160	0.00020175266654810548	-0.002711981489357014	-0.0011195573083005708	0.002852616293249788	9.835446531534409	-0.0530846804466566
0.476055	1787824723665108224	0.0022746732424607265	-0.0017169477943062888	5.535442551958202e-05	0.025579037260455767	9.831352183821485	-0.043316199914160185
0.481373	1787824723668108288	-0.001057112654917963	-0.0018278623996715957	0.001825882682395465	0.05024801130394873	9.81314263976159	-0.023338981715202184
0.489748	1787824723677108224	0.0014397584655428302	-0.0036193958737002455	0.0024083783272309143	0.07040678414717268	9.861094987005481	-0.055626447039862206
0.491356	1787824723680108288	-4.4095406146485154e-05	4.935101786059546e-05	-0.0010106976636512911	0.061101814335504656	9.862920428508023	0.017344858630093392
0.498998	1787824723686108160	0.0012278872344973332	3.3047171211155195e-05	0.0023924227170841806	0.04968514447847281	9.813401272957663	-0.048551485004375616
0.500060	1787824723689108224	-0.0029655301830835523	0.001494688795852955	-0.0013356931714087453	0.021876853060817998	9.854550569816055	-0.07223089531207877
0.507676	1787824723695108096	0.0015037492569924106	-0.0010285307086988903	0.0008415879965930038	0.06074738730318727	9.801610967998233	-0.04876977972968635
0.512704	1787824723701108224	-0.001703838088353708	0.0004084318010589681	0.0012888648721604825	0.041794477205704714	9.831230811231016	-0.04818340538474837
0.516762	1787824723704108288	0.0009398335506707778	-0.0003247673197019547	0.0005054556999317084	0.06415308451946883	9.793042226427852	0.0031098726272571625
0.526079	1787824723713108224	-0.001057528940973192	-0.0020618688307719765	0.0012848516604306707	0.05598006324506234	9.79618972084037	0.05488895476487214
0.527888	1787824723716108288	-0.00017723660458737094	-0.0006117789908423041	-0.0010410437065960202	0.045503919002187226	9.80037027887668	-0.09205475898741526
0.530933	1787824723719108096	-0.000459486840340806	-0.0022028584946432055	-0.0008058630434842691	0.054241436685479885	9.841640462442985	-0.11340901199048352
0.535946	1787824723725108224	0.0016207717996713632	0.0006445906141160411	-0.00018238941758977036	0.013522337601060558	9.803933726667157	-0.01573386609551515
0.540875	1787824723728108288	-0.002196447722266758	-0.0009156624810136881	-0.00112331267357974	0.03304892065718456	9.804927335438512	-0.042206222395722595
0.546701	1787824723734108160	-0.003276925192513436	0.0016426007773504272	-0.0013709725196336068	0.11212478910308886	9.886282705070787	0.035050013934049495
0.554919	1787824723743108352	-0.0017440848151625726	-0.00017452424447451123	0.0020192021197355673	0.011167907764985645	9.822950416583097	-0.039258138538036357
0.557962	1787824723746108416	0.0013123686131576028	-0.0023670005445401206	-0.00013839925650496683	0.061641059007436105	9.828404699590154	0.08078623470211911
0.561838	1787824723749108224	0.002021843394461781	-0.000535434389192631	9.574960149902673e-05	-0.008460860482170103	9.801470377729434	0.02268789276947481
0.568367	1787824723755108096	-0.0004910007852663965	6.638236620615649e-05	0.000604248680195925	0.019081760014554316	9.880456709676132	-0.04687850189370761
0.571437	1787824723758108160	0.0017486249234717937	0.000708735164582522	0.001030468506970205	-0.01987175042213577	9.837458790635482	0.04595067504114839
0.578266	1787824723767108096	0.0018561946305275907	-0.003105204592840988	0.000594249965941721	0.12684271947664522	9.84532854889956	-0.0903372068440008
0.582175	1787824723770108160	-0.0007712840949610802	-0.0003683055608395354	-0.000567009923564257	-0.09594475321498716	9.842260298527757	-0.0584496860484198
0.589404	1787824723776108288	0.0007779437000097338	-0.0011746684248786492	-0.0021913961944025986	0.0022199512292778584	9.777155820189249	-0.046452668519468734
0.592380	1787824723779108352	-0.0011258056503405292	-0.0008834444734708917	-0.0029147392260111572	0.0641730763970427	9.78169448439839	-0.03334559819321511
0.598753	1787824723788108032	-0.002981088550001623	-0.0014146884892517729	-0.00014537448304657977	0.022010654228486422	9.799086012257808	0.0034979060576724383
0.603923	1787824723791108096	0.0006741784809276798	-0.0008580315086169762	0.002372155096091367	-0.003259955180557564	9.812623686025427	-0.03533495330981542
0.606470	1787824723794108160	0.0007837805190619979	-0.0001557822457552624	0.002894397953018991	0.02065167730215774	9.816651216773069	0.0023481658205021863
0.613124	1787824723800108288	-0.0006869416749128921	-0.0003564405328687764	0.00228916700641816	0.059438454362955945	9.867362164913773	-0.11881160410841918
0.617211	1787824723806108160	-0.00037937625074865655	-0.0030020549786452196	0.0008757021470750825	0.018176053813926705	9.82636077081849	-0.04419335016652487
0.626527	1787824723815108352	-0.0014531623761892024	-0.0017481347916058145	-0.0006504935924291704	0.05180993944113482	9.7861873424113	-0.00018333987637436655
0.628051	1787824723815108352	-0.0014054038995341817	-0.0004411705267061807	-0.0016168483667366863	0.06756331111699093	9.948621461014142	-0.028597699865791245
0.633179	1787824723821108224	-0.000904047651053221	-0.0007163174179266468	0.00047765020902991044	0.00696252673851009	9.871611401175564	0.008576127263675182
0.637915	1787824723827108096	-0.0008014877632748938	0.0025637601386595027	0.0016419838778607273	-0.05426111996370338	9.884274312613705	-0.11226413027701032
0.642829	1787824723830108160	0.0006935765793698859	-0.002157566021809503	0.00242256680871276	0.0065683991517743665	9.774774498755807	0.019317022504111624
0.645960	1787824723833108224	0.0002720819047065614	-0.002598929745717677	0.0011545658043449025	-0.002601482334231825	9.761951647026523	-0.012208286899829338
0.651779	1787824723839108352	0.0013718189342736239	-0.000641114461403662	0.00033887993580563783	0.013260767302760549	9.731245084816996	0.0005049454343603044
0.656399	1787824723845108224	-3.9892840245732655e-05	-0.0008250419233926209	-0.001600054430669186	0.017009581068860663	9.865231783934364	-0.059223863019991614
0.661991	1787824723851108352	-0.00022051117918930408	-0.001403479179377025	-0.0013790052094719441	0.03720741475350601	9.82482354605961	-0.09784889547527459
0.669417	1787824723857108224	0.0005013142635651285	-0.0008033200020711615	0.0005777395979771771	0.04985840293557947	9.903293692031514	-0.06862553835575
0.673255	1787824723860108032	-0.0007546961923583732	-0.0013404263894265511	-0.002439839446632799	0.06285884142034913	9.842449602747934	0.007170105152886019
0.678565	1787824723866108160	-0.002917341206354075	-0.0007549068028297194	-0.004146365372993696	0.0973673795702267	9.90059645051127	-0.03284241920955433
0.686685	1787824723875108352	0.0002893102713326447	-0.0004898280710094927	-0.0002321555917787833	0.04462687191246138	9.828803906972334	-0.0034515111645451145
0.687310	1787824723875108352	-0.0020184086560405077	-0.0010395642681250653	0.0033109685367408745	0.09301708436507221	9.819321944601707	-0.08634647915883571
0.693536	1787824723881108224	-0.0009834556307338578	-0.0012552044518242828	-0.0021685528680869645	0.08561770259969811	9.818109740664196	-0.02578637343699478
0.694724	1787824723884108288	-0.0014298915650288035	0.0011871682796666244	0.0011384550316401168	0.05581742717200139	9.919823804899416	-0.04101750339906081
0.701615	1787824723890108160	-0.0019042417464436945	-0.001182861444416276	0.0004701600609966417	0.13644162055572784	9.89019490006273	-0.0505849958436103
0.706282	1787824723893108224	-0.0004003425179452361	-0.00015033261872911824	0.0020099274452773136	0.03291723000020826	9.915824647958718	-0.04877459910858334
0.712345	1787824723899108096	2.8738674255700597e-05	0.0002417295350282641	-0.0026105445302258357	0.026201833719143034	9.916484316993792	-0.05715429200914418
0.716374	1787824723905108224	0.0015953236576987063	-0.0008491984645862933	0.002711939627640701	-0.0045118283266798315	9.88226094438961	-0.06317870055876305
0.721783	1787824723911108352	-0.0019784166734863468	-0.0004541003632335286	-0.0009423444598998931	0.05879579592638266	9.834286074677161	-0.10860598470178859
0.729201	1787824723917108224	0.001216353959166001	0.0010102919726134882	0.0040006916720803625	0.04688952511469616	9.8501551649511	-0.027070189129964776
0.732230	1787824723920108288	-7.372310604338403e-05	0.0021840291994122767	-0.0012325494329543877	0.05774682812152691	9.781451411146291	0.008902771985983382
0.736963	1787824723926108160	0.0009284430012679952	0.0017825907539786782	0.0029035768322625928	0.044449832588762186	9.869424010354008	-0.10131467818192823
0.744037	1787824723932108288	-0.0005699988586241823	0.0008478081128586924	-0.0009979522023136579	-0.01443888945416899	9.823053337045767	-0.06255305805204425
0.748876	1787824723938108160	0.0016791907333671722	-0.0003124654683888242	-0.00022552039061572466	0.015521500266877243	9.845720669182194	-0.07730412392622343
0.753866	1787824723941108224	-0.002085202074953113	0.0016797595443003017	0.0007572556433605959	-0.03231054357637675	9.839808232070666	-0.017896224723564752
0.757132	1787824723944108288	0.0015620259994952024	-0.0019168705236272943	0.0016346956330780958	0.08509318283287925	9.73169970789448	-0.0267984353379245
0.762142	1787824723950108416	-8.065912334333495e-05	-0.0013030920618290608	-5.8053586911043475e-05	0.10404077941195415	9.815336362720917	-0.04196075684915318
0.768690	1787824723956108032	-0.0016218197464645762	0.0016613914212465818	-0.002880334779575257	0.022594132212018607	9.795861458558269	-0.027689092352002054
0.773214	1787824723962108160	-0.001068846575243696	-0.0008668112445070708	-0.0008700580347813418	0.06356623894725037	9.799483895450614	0.03219978893690602
0.775581	1787824723965108224	-0.0010290828177229104	0.0003902268391076717	-0.0005902448245746083	0.031159023981312005	9.813654868674515	0.03354817205670599
0.783301	1787824723971108096	-0.0012206015202300944	0.002605942702404506	-0.003207892826211831	0.012098230963543486	9.853531982866771	-0.05263843918004151
0.786476	1787824723974108160	0.0025922798867507174	0.00026259238897546726	-0.0005165747206205448	-0.009236574395284344	9.87152905041797	-0.09698237181260413
0.792647	1787824723980108288	0.0018918720293160359	-0.000701483514948556	-0.0009463641123307712	0.07064204939257201	9.84449301548604	-0.005138517534604554
0.800726	1787824723989108224	0.0019397870601573811	-0.0010580992632149779	-0.0002923113407424977	0.002713237051821485	9.872868476613329	-0.0947419037115914
0.801770	1787824723989108224	-0.0004003665413206363	-0.0023817313958456763	-0.00029862824863617675	0.02739141772138281	9.866789637820704	-0.12788378814424045
0.804791	1787824723992108032	0.0017518547645297919	0.000838532584946045	-0.0006497074568338863	0.03730811276455911	9.833967241947368	-0.04134832322300673
0.812534	1787824724001108224	0.0007921844486050954	-0.0002755776975641356	-0.002346772644784723	0.10655710709178345	9.885073916684407	-0.047752604262259586
0.819144	1787824724007108096	0.0015997364691571019	-0.0017567239484778017	-0.0010267580792671358	-0.04762570278231071	9.824386471961398	0.002038588605193563
0.823461	1787824724010108160	-0.0019523966789143912	-0.0025600035066015493	0.0014601165895713722	0.02257872933378376	9.780852589645983	-0.02886029469719382
0.827654	1787824724016108288	1.0119886469066585e-06	-2.6885581867807366e-05	-0.0008311080250547182	0.04788743076746441	9.85576118527314	0.03757067915276603
0.832138	1787824724019108352	0.0015227206105078816	-0.002199959439932917	0.00013259209598089782	0.0638345656500289	9.894368732308934	-0.061518658554147516
0.838251	1787824724025108224	-0.0015705073177719004	-0.0008489647830136951	-0.0018173996888226128	0.04786178553104906	9.7453618953736	-0.06432607148782701
0.845267	1787824724034108160	0.0017826366292798945	-0.0004215073523765318	0.0007410229380695044	-0.05789055511080517	9.839905870285252	0.013017297764788965
0.847151	1787824724034108160	-7.234448563965869e-05	-0.00275138936779249	-0.002159557484839369	0.0845116689861626	9.862034274064943	-0.02351872214497603
0.853574	1787824724043108352	-0.0001397754358135083	-0.00031909165609555795	0.00031580752816821834	0.06067633180602777	9.771676187852206	-0.0383870573777263
0.856544	1787824724046108160	0.001068640455296102	0.00027743369156685874	0.0001309199449161092	-0.0002660390679329813	9.83430272695207	-0.03194715418195828
0.860198	1787824724049108224	-7.161414298636756e-05	-0.00024143211260235734	0.0001584894640915595	0.06628841829684232	9.804005417081601	-0.017010570546656074
0.867230	1787824724055108352	0.002550146472330076	-0.000897010112996079	0.002213771141868775	0.049977826797262204	9.852556328575393	0.05766458114967628
0.873842	1787824724061108224	-0.0017833782332645856	0.0009548317997074107	0.003424288606305649	0.08059180091415807	9.879792225155802	-0.10306385427366128
0.879974	1787824724067108096	0.0009635901380461349	-0.0017379846592326263	-0.001803933575408506	0.020893494328066618	9.851402665914573	0.0005061297960664325
0.881550	1787824724070108160	-2.276997018689111e-05	-0.0011363320639508098	0.0032398894672775944	0.02536733985121126	9.805154693776124	0.004861676372703641
0.887920	1787824724076108288	0.0008787770989984025	-0.00297663127313673	0.0020212905007504062	-0.017781280920809592	9.867005944636874	-0.11924615402771475
0.892412	1787824724079108352	-0.0024820969381099765	0.00013882168145338313	-0.0018940721479198993	0.00711384514534158	9.890261606303584	-0.038775982773533765
0.898396	1787824724085108224	-0.0011419497131199639	0.0002014131027403578	0.0019028839948712329	0.03425266020941078	9.884052016134632	-0.0194223719016235
0.904399	1787824724091108352	-0.00229888549084865	0.0005702216546628606	0.0007841645284719385	0.042956817207769324	9.765778666064143	-0.011598648811969241
0.907885	1787824724097108224	-5.974359996981844e-06	-0.00274882626884787	0.0017069429855543447	-0.0019274748110617995	9.838863112872371	-0.034574472774102756
0.914459	1787824724103108096	0.00022728354861908029	-0.003932647203259064	0.00106470714105554	0.05964469296811799	9.867397211589934	-0.002686790544292404
0.916624	1787824724106108160	-0.00037598259715362935	0.003482542663818684	0.0016331393309505506	0.03784725399595314	9.865638946052599	-0.03315952288381552
0.924342	1787824724112108288	-0.0020934223121903297	-0.0013973904404386151	0.00012173618384628871	0.08802135350582022	9.768242328990867	-0.00716958134736986
0.928825	1787824724118108160	-0.002875439330646785	-0.00011310423553946401	0.00226104923751121	0.03671041507785945	9.860213617916685	0.08322255557346614
0.935865	1787824724124108288	0.0006096174864527107	-9.728196276489459e-05	0.0030983040956157172	0.12725046010632107	9.826204342009381	-0.053962903869920045
0.937608	1787824724127108096	-0.0028864500345044094	0.0018232542539504781	0.0010150161048715104	0.0405316540414806	9.766244075320733	-0.059849156243411514
0.943833	1787824724133108224	0.0011037870389040535	-0.0015967263244344874	-0.0010130576527829418	0.07011728716577607	9.869999995677603	-0.08858029739512553
0.944824	1787824724133108224	0.0004283180471839639	-0.00267359829030676	-0.0003540723682944842	0.11274034576788426	9.823778927066217	-0.03402101578847638
0.952363	1787824724139108096	-0.0007190869516688704	-0.00046568677026820196	0.0006370360023505871	0.036345348870391016	9.873130935544518	0.019986674856709623
0.956468	1787824724145108224	0.0028073727596248698	-8.380415520493117e-05	0.001191677077407254	-0.03107196785038842	9.839994164945972	-0.10623463286491124
0.960532	1787824724148108288	0.0014637525484303322	-0.001913622169102931	0.0035898693057032165	0.03082036410159744	9.830137354031113	-0.051102415573989875
0.968139	1787824724157108224	-0.00080408579071668	0.0038065961858853056	-0.00012784980342725222	0.08959026338483	9.794752568970033	-0.004990237287397156
0.971731	1787824724160108032	0.0005522957520635594	-0.0010957921644561687	0.00019957911905643926	0.027836895502122663	9.792947387837222	0.006044258673574436
0.978541	1787824724166108160	0.0019478613018442937	0.001272900371666382	0.001065087840111703	0.07550615023945614	9.850281026323973	-0.0555608263931603
0.982440	1787824724169108224	-0.0005097855748998718	0.0006320387020182172	3.245880091869051e-05	0.1430284893726188	9.796363906409686	0.04254472258305898
0.987329	1787824724175108096	-0.0032617325659064105	-0.0012934301717072293	0.0014724818716133996	0.09653941838107538	9.84545454154736	-0.010458869468459323
0.992109	1787824724181108224	0.0006877999476755011	9.222839237958686e-05	0.0015413832205230897	-0.01536852928631794	9.882553714871037	-0.02619501848630636
0.998443	1787824724187108352	-0.00022679940463151001	-0.0005141823529963579	0.0005858780521106612	0.00791322879006516	9.805822037458306	-0.01601982638789404
0.999886	1787824724187108352	-0.0008168708562605266	7.298825530214939e-05	-0.0015344420620335792	0.04629801820429134	9.83249648570722	-0.011178854368824879
1.007859	1787824724196108032	-0.0022168324366574404	-7.886797611773017e-05	0.0034490141153999784	0.05260653776931966	9.859495465310195	-0.05858231991033042
1.010998	1787824724199108096	0.0023323277461521977	-0.0018500872810376923	0.0020484745265214955	0.008256970827772242	9.759389039892477	-0.01275855737900734
1.014680	1787824724202108160	-0.0015082702459194729	0.0016612572427030035	0.0029524843109843377	-0.007487435626746544	9.817017155583006	-0.012185875182099709
1.021384	1787824724208108288	0.0010396211516284775	0.0017325121739366085	-0.000953017744433327	0.029554184679235537	9.887282779875578	0.012964322778417962
1.030028	1787824724217108224	-0.0015074140296602503	-0.0011893680774517797	0.0009637786776246079	-0.030363156320435125	9.82869547029032	-0.04200373400388528
1.030528	1787824724220108288	0.002516119566815239	0.0001719839028213365	0.0021998759693558183	0.017795994847985143	9.878245107372237	-0.06376074359358432
1.038099	1787824724226108416	0.0014858437082624736	-0.00031241494894239234	0.0010747608014089077	-0.013621604564188525	9.841939789973818	-0.013931185163488395
1.042717	1787824724232108032	0.0024038782663414484	-0.0032752061710625683	-0.000424085530947706	0.056366910605845796	9.780234659994337	0.006433064339916077
1.047740	1787824724235108096	-0.0010801911389999592	-0.00035981093447827895	0.002401291758609184	0.04659748693439066	9.917017938373174	-0.028603103670342907
1.052489	1787824724241108224	0.0012257816292355363	0.0005722068020216956	-0.0010058418450224797	-0.024301417590370133	9.788756586373554	0.04509537708358613
1.055671	1787824724244108288	5.7201227816368645e-05	-0.0002492678533625271	0.0007133929855583776	0.07640729725627282	9.903528966703156	-0.04215914814963125
1.063770	1787824724253108224	0.00010949280793868205	0.003905031451416209	-0.0005424982550243084	-0.027780492561948672	9.8465385127456	0.0868118685123093
1.068145	1787824724256108288	-0.0003244710165617465	-0.003049437864681279	0.0026031124365385877	0.021519759593232775	9.829217711986773	-0.03799585208173247
1.072914	1787824724262108160	0.0021001990729615926	-0.0001842660322917499	0.0003948340479067761	0.013493660631374641	9.841413953188054	-0.027837920152380857
1.075473	1787824724262108160	-0.0006813493566023865	0.00011237735908899908	6.259118875707078e-05	0.09586205318198851	9.821468094302652	-0.029624468069066913
1.081514	1787824724271108096	0.00042537624036281655	-0.0010962173473827864	-0.0011533273201758214	0.11067213966810692	9.822871914086242	-0.10301783500169479
1.086576	1787824724274108160	-0.0017616464006293513	-0.001081748292702443	0.0012317883638157485	0.1147507905781004	9.815283702773463	-0.021905739350698672
1.092736	1787824724280108288	0.00021270334669398636	0.00036115642740656214	-0.0015463369193956774	0.07364294829971271	9.856329323406705	0.035910393158846976
1.099386	1787824724286108160	0.0004516718082214424	-0.0002869563327562327	0.0004198831620220756	0.06303536277759354	9.823853562598655	0.07137200424871351
1.103143	1787824724292108288	0.00234721162264169	-0.0006146308865308409	0.0005010425433429144	-0.043264330477179785	9.87017484351902	-0.05086250000959826
1.109439	1787824724298108160	-0.0006934187463907474	-0.002508970793581152	-0.0016598465752729987	-0.0027020250641773477	9.870440348011654	0.008873600043948257
1.113383	1787824724301108224	-0.0013320130628788945	-0.0010589494929490629	0.0017521758618536634	0.022317783582327454	9.874632553639913	-0.06484574162005992
1.118674	1787824724307108096	-0.0010326413224093257	-0.0024727001333571396	-0.001472766392190629	0.06196065234851002	9.854805811265237	-0.06268984637365543
1.123004	1787824724310108160	0.0028927233979219153	-0.00190845605795868	-0.0021564351355209494	0.033217970871975276	9.788898278944643	0.0032945197599422715
1.127147	1787824724316108288	0.001339390683834555	-6.955819348463833e-05	0.0008578005662359743	0.0315628987105568	9.867076599565914	0.02882106277275768
1.134733	1787824724322108160	0.001387263949817187	-0.0011947343376329852	0.0008160663877070524	0.018501413970938487	9.820323637845128	-0.0073433063116951705
1.135233	1787824724322108160	-0.0022447868931343828	-0.001647091001936779	-0.001493298601008065	-0.010150146473813897	9.762495573313124	-0.07072725480248837
1.144759	1787824724334108160	-0.00022101584179674345	-0.001534464231408031	0.0004192422804655014	0.12362408505476655	9.914830319605665	0.01567549805591615
1.146724	1787824724334108160	0.0007132784648420223	0.0007653428658025955	0.0003361227516149256	0.11273909993885424	9.794747128434523	-0.013054561934295026
1.153458	1787824724340108032	-7.600358883802517e-05	0.001088298020846021	0.00035361134586703855	0.07971874995542202	9.825054919404517	-0.08265628197554156
1.156004	1787824724343108096	0.0015766638010014644	-0.0011743404424313993	0.0024766355422186316	0.12132381994855287	9.811854420721197	0.06616159537938042
1.167027	1787824724355108352	-0.0007041333928757723	-0.002183472694108663	-0.0014870576440818646	0.02202898665161087	9.87585490003357	-0.04283431232305759
1.172334	1787824724361108224	0.001627011096128328	-0.0018913186378670243	-0.0004503305345779921	0.08676326240944854	9.849380019879783	-0.007957798239289108
1.180430	1787824724367108096	0.0024365052132037522	-0.0016242606087820423	-0.0013127467201644325	-0.007728873936589921	9.853911320699194	-0.040976318027223305
1.181199	1787824724370108160	-0.0011920618220842387	-0.0015666761841115929	-0.001564059791906211	-0.04335188139892028	9.883253129232601	-0.009027221735228432
1.187802	1787824724376108288	0.0012816770687276656	0.0004875572096838764	-0.00011790442424264804	0.010137953307043937	9.853784904017964	-0.03469644371227183
1.192021	1787824724379108096	0.00011172036538344286	-0.001860498963015713	-0.0009534221978635361	0.03532534987175381	9.837168532224764	-0.07492601079257616
1.199029	1787824724388108288	-0.0017178998872169166	0.0024879179138615243	-0.0025747809302825	0.08190091286515283	9.87139642525005	0.021895404469470692
1.202086	1787824724391108352	0.001635522386128903	0.0020314392227664103	-0.0011350398557243594	0.041891328297658445	9.847772763540032	-0.04781439102803129
1.208061	1787824724397108224	-0.0007165554476758039	-0.0021528468183856673	0.0008077793340119236	0.15178192730074297	9.786652120525051	-0.040234572064113
1.214931	1787824724403108096	0.0007957495560366387	0.0016639167923768222	0.0006000568966687034	-0.0027631746939000557	9.913495699925884	-0.007724563069715772
1.217178	1787824724406108160	-0.001217603773681651	0.0008291749975200154	-0.0009416746234794181	0.03339806732482808	9.894765020771947	-0.09835396430422966
1.222417	1787824724409108224	-0.00029268525245382406	0.001839792895863302	-0.00048080536165587555	0.07425456037276386	9.783322112594162	-0.014260436397771683
1.227086	1787824724415108096	-0.0014294806521355295	0.0005449677500566057	-0.0017756059819320118	0.015711151517631534	9.854052319642912	-0.1107659822664158
1.231136	1787824724418108160	0.0004204339819637292	0.0016340927403976078	-0.001032938317531255	0.03822697190723191	9.78086227374895	-0.017138366359547755
1.236612	1787824724424108288	0.003191316032374716	0.0004626329052086002	0.000454962832529328	0.09145110208696819	9.798569381321126	-0.005551950800791339
1.243504	1787824724433107968	0.0016912037893517039	-0.00025108587969845824	-0.0005191143837936408	-0.0038157261075534785	9.800774147118089	0.005199953102201983
1.248045	1787824724436108032	0.0005987825366670541	-0.00041455346052423725	-0.001089709119294575	0.034808660371594954	9.826207467973472	0.013828163445080137
1.253649	1787824724442108160	0.0006066592339541748	-0.00128500226899163	-0.0007789311990754038	0.04699275746270984	9.730520293377559	0.0037937154688488933
1.256186	1787824724445108224	0.001114104334548351	-0.0015405096149178085	0.001643306161295872	0.06527245673745644	9.836005707266146	-0.01531080561551517
1.261278	1787824724448108288	0.0006984641538524815	-0.0008172233823259239	0.0014481222724332158	0.09483233903941465	9.836916601631527	-0.03174333320513098
1.270186	1787824724457108224	-0.002052217218317631	0.0033799306864309648	0.0003336215875808048	0.0032820252209498635	9.855419316462129	-0.08813905902753409
1.272709	1787824724460108288	0.0004605363764141491	0.004778143231833411	0.0006930094121729409	0.03246211333519319	9.84016340561343	-0.042501485574594516
1.278037	1787824724466108416	0.0007443603286796008	0.00023869399461853315	0.0013530207924032458	0.0771553769231428	9.884264441347787	-0.026907573325809526
1.280434	1787824724469108224	0.001049567545207189	-0.0005009595709554465	0.00151250661272635	0.12299342549655351	9.817503034663563	-0.016627074342754636
1.288218	1787824724475108096	-0.00023802475481885985	0.0009513019656005866	-0.0009591550229937533	0.07322536511177058	9.762961438932306	-0.0774817273727104
1.290609	1787824724478108160	-0.0011911188365362978	0.000978381236016405	0.0011029167811539464	0.001942129179293789	9.836925161099389	-0.010414139714261032
1.295673	1787824724484108288	0.0014587199140063626	0.0013991165631373169	-0.0004989307742977555	0.04919391356752951	9.857242798938707	-0.030433949352715258
1.300195	1787824724487108352	-0.0009246672838706953	-0.0001712186374821675	0.0006856708027357122	0.040798980228456766	9.803494090312324	0.02078236886161655
1.309763	1787824724499108352	-0.0004810220499583298	0.0005463966371990303	0.0006819208417879843	0.04400481507614449	9.793160108698226	-0.050438492690226246
1.313346	1787824724502108160	-0.0010878905078048305	-0.0014708456219571044	0.0006364324751811063	-0.0014928886888192633	9.828967302434757	-0.10943385265537672
1.317424	1787824724505108224	0.00035179089580807837	0.002487614846863619	-0.0015259187779935565	0.010311902913706632	9.808793054834497	-0.05144246015529101
1.321341	1787824724508108032	0.0012014836752661951	0.0011728889278471016	0.003538245683755682	0.06638114822004468	9.826904651153422	-0.06841088320921597
1.327524	1787824724517108224	0.0016301435714393827	-0.00028078497418126925	-0.00044512870627007686	0.0295673859645419	9.88547415435618	0.0327962619297015
1.333074	1787824724520108288	-0.00044610442477719086	-0.0002523198139645598	0.0004796326534097024	0.01282725717253929	9.911321054286388	-0.016875494587776853
1.334121	1787824724523108352	-6.878961329256595e-05	0.000753215608587486	-0.00011183393791253587	0.043292217401858124	9.909742899366716	-0.01809504769274074
1.339768	1787824724529108224	-0.0025622246030265754	0.00020848295254213608	0.0017112665757212828	0.06622451873066063	9.836352818856906	-0.0243951120395791
1.346638	1787824724535108096	-0.0011393162372841286	0.0007045312197518159	0.0023100571886360824	0.06757965959254154	9.770953178252235	-0.010645056524989795
1.352721	1787824724541108224	-0.0020840959492891267	-0.00018962361533488657	0.0026345554879139872	0.033252774513474595	9.764752380796685	0.009510175735161656
1.360666	1787824724550108160	8.708037989291435e-05	0.0007736547316995858	0.0018380004219144886	0.013326937542480946	9.804258849230314	0.00671139320453526
1.364300	1787824724553108224	-0.0003879871662429874	-0.0010818867661236734	0.0006354537021456928	-0.04196160328106008	9.80168476059999	-0.008891856043295475
1.370103	1787824724559108352	-0.0020736901628601702	0.002065681805669886	0.0006546386203692233	0.0947421734781513	9.825675955277967	-0.006169346459395847
1.372232	1787824724559108352	0.002324979083510339	-0.0002104205466852184	0.001174295814750834	-0.07508611741572863	9.783299811725927	-0.07568484606729536
1.376267	1787824724565108224	0.00010159703164160952	-0.002263037933772426	0.0016277472269246676	0.14210263451868624	9.846063682154046	-0.002384116644675964
1.381326	1787824724568108288	-0.0001350551169006068	0.0006798447304058319	0.0017586980069065395	-0.01569489759305144	9.851258494858348	-0.017883431349891357
1.385644	1787824724574108160	-0.0009120919102323603	-0.0007270907252440403	0.0025808492585046193	0.04282308193551734	9.782202110069898	-0.07523758720389619
1.395776	1787824724583108096	-0.0017788107429620873	-0.003777490203324401	0.0003617144813670174	0.09424177949979272	9.871929748816946	-0.014999454698663968
1.399235	1787824724586108160	0.00017927804907686312	-0.0004723394551090212	-0.0006346132227115726	0.10186447523774547	9.833148453015271	0.03656342561379272
1.401561	1787824724589108224	-0.002528643023017373	-0.002658434531833285	0.002379561951114602	0.06775317667123756	9.806124182134514	-0.05263724533920927
1.407285	1787824724595108352	-0.0015104450880261023	-0.0016944809745440138	0.0017527511222899703	0.0980857300320575	9.84540600798666	-0.06278136024317445
1.412352	1787824724601108224	0.00010324988528869593	0.001946900343420984	-0.001107895498701662	0.04783166252018368	9.90412422266646	-0.013426865854600588
1.417275	1787824724604108032	0.002235122555156996	0.0016118229306609718	0.0013008851780273946	0.02277061836972676	9.90083193763406	0.0476305278427252
1.424057	1787824724613108224	0.004953685251760673	-0.0011871471453224066	-0.00642594252295354	0.09394181315804626	9.852028326203678	0.023190883253385967
1.426960	1787824724616108288	-0.0009934218327689748	0.0003200764880367579	0.00030145992589554693	0.05249588583882516	9.885851895623729	-0.0501644649255021
1.431489	1787824724619108096	0.0015531041494643346	-0.000531838838589159	0.0032837592066324406	0.06933325011366703	9.890904881370798	-0.015978565791575125
1.437827	1787824724625108224	-0.0013515157898036274	-0.0018656279847729337	-0.002131613368900549	0.07250838343805124	9.882126070503581	-0.04545596259731439
1.441821	1787824724631108352	-0.0020536335471606037	0.001844064077085792	-0.0033753406169994135	0.11534714814075592	9.762138401227665	0.08060313663483819
1.448108	1787824724637107968	0.0009903083462023555	-4.305997562371533e-05	-0.0021586898484372585	0.08017595768238672	9.875500002150474	-0.04236810053347601
1.454354	1787824724643108096	-0.003094642130696901	0.0020387464846095263	-0.0019917784617006014	0.006727634999077449	9.832984422124321	-0.0854422368348268
1.457082	1787824724646108160	0.00012898975626189125	0.0016909708808414824	-0.0003402401710993271	0.06501544275402227	9.819019227658302	-0.02808441232360815
1.461541	1787824724649108224	-0.0015851280883363904	-0.0020027895298570793	-0.00023740198142480876	0.016680827659118515	9.795540617508532	0.009786877650824657
1.467447	1787824724655108096	-0.0005430051833991004	0.00335315745818071	0.0015116298556960498	0.04116569310354232	9.749101519380497	0.03114686373885299
1.474537	1787824724664108288	-0.00025156782958528237	0.0007241566069917106	-0.000721365290497536	0.007410182807594076	9.863471663156076	-0.016286082536322175
1.477160	1787824724664108288	0.0017506139407851013	-0.0004737493379877516	0.0018108051814341051	0.08517046158767605	9.851334371121634	0.027876561559858508
1.483987	1787824724673108224	-0.0006585254402005087	-0.0002922004052979181	0.0005235709719434579	0.03598161439950304	9.833797812136728	-0.05160277617792498
1.488057	1787824724676108032	7.368891544725986e-07	9.892702338772655e-05	0.0004475412234833427	0.07398698158197012	9.831508737884526	-0.04609681936912984
1.490858	1787824724679108096	-0.0015054761935623857	-0.00024459656782607276	0.00027148976264582445	-0.0036253261498610106	9.817174721091034	-0.018635362457834877
1.496658	1787824724685108224	0.002262894930281402	-0.0010268705821245584	5.2935022507950446e-05	-0.028344875264088715	9.880613260783273	-0.009132410344106775
1.502915	1787824724691108352	0.00011644090010206916	-5.762241804210325e-05	0.00204735248962445	-0.028958433198772254	9.854336202584165	0.0039937049736386565
1.509988	1787824724697108224	-0.0018623949062747914	0.002006815206533168	0.000643889083249525	0.10858206802565092	9.814318719781028	-0.025875265411542427
1.512811	1787824724700108288	0.0008661600281471797	0.0011617946484304418	0.0015102806018214912	0.037915971520665184	9.869999731596929	-0.035048737976420954
1.518957	1787824724706108160	-0.0027509413499383654	0.0034167669849655413	-0.000444463996571193	0.006784024592233713	9.813301683789456	-0.024472974936584582
1.519859	1787824724709108224	-0.00038729971025397707	-0.0014898478488975207	0.0009227241566716225	0.05050173404792149	9.869825526425407	-0.015763264407201088
1.528794	1787824724718108160	-0.0004245645371984461	-0.0001820472511039979	-0.000548673110578955	0.03836395133241537	9.906043291035171	-0.009147761336253245
1.534998	1787824724724108288	-0.000992930929381256	-0.00024183001797104434	-0.00020622970445671458	0.01828064324352414	9.77507377489563	-0.07081452383540247
1.537757	1787824724727108352	-0.0003998617657382769	-0.004335125373001418	0.0031274533894676613	0.0251609890936388	9.83633758047509	-0.01094028121585362
1.543937	1787824724733108224	0.001256748786867855	0.0025470519345378705	0.004645939965433849	0.08586720058138184	9.856894683573458	-0.015660262735783425
1.550899	1787824724739108352	-0.0024587894975622786	1.8335441915591407e-05	-0.0003960914253405868	0.02848346750338388	9.86992506198291	-0.03976526400858986
1.553860	1787824724742108160	-0.000980345557124725	0.00031828311575074454	-1.3074107333415536e-05	0.0014119186283658644	9.867127722176367	-0.05183112527390218
1.558814	1787824724748108032	0.00035526527105011395	0.0010208859591853143	0.0006747747027778552	0.03294171768008418	9.867136346873822	0.015647302137089515
1.563163	1787824724751108096	-0.0013361521469359594	-1.7097079108213472e-05	-0.0001080333971955784	0.09371562597921497	9.846021639004665	-0.039891931632012184
1.565905	1787824724754108160	-0.00017813291996063735	-0.0017180385637791558	-0.0022625932593515127	-0.009721287800907516	9.819325327080806	-0.03469545804389728
1.571334	1787824724760108288	-0.0019403581253671688	-0.0012666498765380994	0.0006061003173035596	0.08825501340935343	9.836508636799383	-0.04480288061022115
1.577267	1787824724766108160	0.0009079296343390485	-0.0003111169138520474	0.0007826727948706178	0.005368037668309268	9.920628968579324	-0.023336205622305997
1.581592	1787824724769108224	0.0004099915076236978	0.0031165541695824047	0.003155861744026528	0.06892762943446312	9.929407993209187	-0.0016472262200671502
1.588870	1787824724778108160	0.002089790089212241	-0.0011021609893226382	0.00126236454278925	0.009387118522340906	9.912330482344952	-0.05678380077959008
1.592624	1787824724781108224	0.00022303942730574018	-0.0013731551305767105	0.001723701179794601	-0.022026118872394577	9.897889112480136	-0.01927780862275883
1.596010	1787824724784108288	-0.00010867651176026966	-0.0022503271584212348	-0.0016819129044409074	0.10114161455363091	9.83148035074253	0.006044243114842862
1.600344	1787824724787108096	0.0002471488869143503	-0.0023352399120993798	0.0006097174311607794	0.06076861515630444	9.902993207947361	-0.020093698463734364
1.609057	1787824724796108288	-0.0014985582335577808	0.00172616669888573	0.0012175751987072536	0.005129231630715048	9.831014034387248	-0.019936163570251735
1.616570	1787824724805108224	0.00016456978105645198	4.190191615781127e-05	0.0009016837091775992	0.001390273979699999	9.923954278173829	0.0016398228897030603
1.617070	1787824724805108224	-0.0020122239782315674	0.0002734775936754371	0.003421100037333997	0.003146526051427352	9.832132480860585	-0.0407643300138635
1.623860	1787824724811108096	0.0009445586531520373	0.0037290995740388703	0.0024718021680702135	0.038357321727437	9.939527814522027	-0.08305704383064416
1.627488	1787824724814108160	-0.003003882172680264	0.00167158922580575	0.0009272026070797384	0.0053894590723631425	9.760082671998505	-0.03545022381091987
1.635844	1787824724823108096	-0.001621713268874772	0.0007984767538093404	0.0004815828875551625	-0.04383673591939384	9.912807046447293	-0.011408924307718893
1.637459	1787824724826108160	0.0005077122201946184	0.0007441695963553303	0.0013016925099995007	0.06064512880930896	9.7971335793236	-0.06096552368005273
1.639196	1787824724826108160	0.002746285132611406	-0.0021316214475817163	0.0032098007694984733	0.019825940665630183	9.84974607654614	-0.0029861553933624232
1.647037	1787824724835108352	0.0010339682788154058	-0.00033922195162940517	0.0008061050377648788	0.041089347257271265	9.82189822475175	-0.10582694320177681
1.652546	1787824724841108224	-0.0011564927136948082	-0.003181564607481795	-0.00017047642023293216	0.09455384885588014	9.897202952903822	-0.05909157162967564
1.657286	1787824724844108032	0.0025241528343323888	-0.002691483473031322	0.0026591278475470953	0.10488487164501858	9.765393497424466	-0.10297894592395303
1.662064	1787824724850108160	-0.0015003221045416521	0.0006907305707367724	0.0008338985006775498	0.11988979085028234	9.823782848179658	-0.06807861907024733
1.668343	1787824724856108288	0.0003231417301427316	-0.00021968870933228987	0.002427726915953059	0.035414151949815786	9.820643820488545	-0.022377628292892165
1.671616	1787824724859108096	-0.0022687421915622698	0.0033173556703399065	0.0002130786160878343	0.03930866839001014	9.878344017146054	-0.021193411925403742
1.676254	1787824724865108224	0.0016087261446664663	-0.003303644998552528	-0.000829419479819661	0.09023884936182433	9.831160706611119	-0.06618484855715918
1.683710	1787824724871108352	0.004710846078720427	0.0014042424866593695	0.0005915116903759984	0.055487257153348644	9.859311584034144	0.041055855185460205
1.685204	1787824724874108416	-0.004459999574681223	-0.00023083990156859524	-0.0003902829899942126	0.03075649686670065	9.83300572800695	-0.048250928247322966
1.692814	1787824724880108032	-0.0006426924193684633	0.00035364381874503114	8.534912479963105e-05	0.01868606732637426	9.832071802967768	-0.04828019651904032
1.699842	1787824724889108224	0.0014778151975285852	0.0004461973614924182	0.0039783065514386404	0.06814227284087325	9.876954971873472	-0.01659994969578914
1.702165	1787824724889108224	-0.0013190738354222657	-0.002969969723626873	-0.0009564241774788977	0.04711481550630593	9.86416354416374	-0.028637536780369524
1.706852	1787824724895108096	0.0012143347281317427	-0.0023776062523420296	-0.001199857698676796	-0.029696284724308478	9.834765458464078	-0.033657290137499705
1.713990	1787824724901108224	0.0011105465066816465	-0.0004161267705980477	-0.00046268597782509407	0.058620741935961285	9.813575134318006	-0.11215718989138078
1.718317	1787824724907108352	-0.002041259359999851	0.0010867918652876945	-0.001103928990256378	-0.0007942022920285619	9.776380405489927	-0.025316872999588364
1.723109	1787824724910108160	-0.0012000595242728277	-0.0017253726288550587	0.00012390863633311708	0.056887151261255195	9.862744303284574	-0.009008214740394042
1.726066	1787824724913108224	3.3766976269593055e-05	0.00016378671137266918	0.0016556740777465542	0.013185078927089366	9.91553785555218	-0.07923413086593228
1.732118	1787824724919108096	-0.0029815090077548066	-0.0006472085895659443	0.0028188770517582817	0.0826516487353062	9.82697828279785	-0.04669816020459472
1.738372	1787824724925108224	0.001958490751464162	0.0008816383351647678	-0.001300787825649476	0.04567394877272907	9.818168335309085	0.012699928742437722
1.741309	1787824724928108288	-1.636939783595521e-05	-0.0006882697133729882	-0.0009605013488721947	0.007988149262215548	9.871687035639104	-0.05737138526812158
1.749299	1787824724937108224	-0.0005061436307507397	-0.0010714820506107776	0.0030646750753237496	0.01563397954910742	9.830412702346173	-0.043362775272660255
1.752516	1787824724940108288	-9.562018162133434e-05	-0.001904278539502414	0.001951655274420902	0.05711313019004696	9.861534754935551	-0.0003777740020195139
1.755052	1787824724943108352	-6.482927950854988e-06	0.001211489441853201	0.00216697965062165	0.019919655064254554	9.891130431700446	0.05054436304424896
1.760809	1787824724949108224	0.00050914734100467	0.0011846403259634	0.0043919938566702515	0.02850363214892169	9.927389678611043	0.05228672754868614
1.767567	1787824724955108096	8.02077773061581e-06	0.002142613397842092	0.0027302462364841096	0.035645760069158546	9.905203420486599	-0.02167715838795227
1.771806	1787824724961108224	0.0013391902168572883	-0.001450883677722666	-0.0012159705613388845	0.036291418244221184	9.826407684838177	0.06003407354923772
1.776016	1787824724964108288	0.001313228410218326	0.0002222769623576688	0.001486707060301732	0.06939542025212903	9.857604999501477	-0.06449455267479534
1.781498	1787824724970108160	-0.0018329448952259801	0.0038318712796481602	-0.0005652641339851907	0.03791331963081822	9.859995345468988	-0.07773313304148037
1.786691	1787824724976108288	-0.00013270137238729612	0.0019281521824958331	0.001289879917263039	0.06845909805277778	9.81441088318601	0.005324627927260468
1.793901	1787824724982108160	-0.0005535909612523177	0.0008137330060607533	0.00038574086455618676	0.08961754876845665	9.829748112882914	-0.030236874923549564
1.796751	1787824724985108224	0.0011271761325623733	-0.0007639846464061577	0.0012171612511289677	0.033670303064096525	9.831766047543276	-0.059163995327575644
1.800398	1787824724988108032	0.001452896384484887	-0.0009744496336596613	0.00013875649959208615	0.14519676615901822	9.787935067156795	0.00806120025753107
1.806192	1787824724994108160	0.0017275849889745911	0.0019335367571411996	0.0006798583094188458	0.034184526029976445	9.86153701222043	0.009080109952604401
1.812562	1787824725000108288	0.0001680193486286225	-0.0024391448885001154	-0.00021552475528752632	0.06747284899499531	9.905746131576235	-0.034055529159545295
1.818661	1787824725006108160	0.0002692055588404506	-0.0028614271959594697	-0.001173007984233985	0.10450907066734502	9.878967458235957	-0.008782268629272425
1.824665	1787824725012108032	-1.1731087352000362e-05	0.0004778266632901488	0.0007328762379102496	-0.011581583620474789	9.847062663631903	0.006160573009816525
1.828972	1787824725018108160	-0.0022112612047656423	-0.0006754799891197597	-0.00024428500714790175	0.044503000341228546	9.908142920262048	-0.039410168969897935
1.830935	1787824725018108160	-0.00013502312143125037	0.0009195871474909442	-0.0012113670931589587	0.034130336739988276	9.850589570384294	0.02632473210609427
1.836382	1787824725024108288	0.0017464243782638665	0.0021163168975097935	0.0003131506543842318	0.05237558570249251	9.76173721890498	-0.06364824581931605
1.843838	1787824725033108224	0.0003499081809425083	0.00017896472449209063	-4.808976016622291e-06	0.029206029507449792	9.818052175132385	-0.05808386601734822
1.846530	1787824725036108288	0.0025454421482354727	0.0020024584046262946	0.0001782841523924684	0.1000462195385914	9.847734659012563	0.06883670960446832
1.853519	1787824725042108416	-0.0008155981076199979	-0.00023853757351151796	0.0009763039349739886	0.09941967712202006	9.831672946960833	-0.020259313561227715
1.854106	1787824725042108416	0.0011345492703849912	0.0007669137156183345	-0.0013975538237366995	0.048358555997123284	9.796322121751034	-0.08960651003819782
1.860568	1787824725048108032	0.0008907843748712913	-0.0006926027367721826	0.0026173449666967107	-0.03822771868410066	9.851210336975813	-0.04213239497459155
1.867408	1787824725054108160	-0.00047325276716213424	0.0026322038931018018	-0.001266949937964392	0.08511951369033255	9.883435820925603	-0.02049431451135595
1.872509	1787824725060108288	-0.0024394413983518494	-0.00042690751813179335	0.0005342885601538064	0.06966463835294973	9.882189881132145	-0.04265169207198878
1.877265	1787824725066108160	0.001838212586323588	-0.0006500030805157638	0.0022438796000568404	0.13139113036964506	9.886643311644772	-0.09591738580332357
1.883123	1787824725072108288	-0.0018750316757275964	0.0017636401896517267	-8.554449019348593e-05	0.024585287293490916	9.805544523470589	-0.0515705714208423
1.886509	1787824725075108352	0.0017587992802331528	-0.002146506747028577	0.002396756698961325	-0.008982976105864932	9.83905589859081	-0.052505263048988615
1.894912	1787824725084108032	-0.001410526514513061	-0.003301753206202412	0.005126308533095848	0.11845497032655238	9.899640161142495	-0.022485371146605416
1.897112	1787824725084108032	0.0004376542595994038	-8.44928705791563e-05	0.002837596744079403	0.016618076059129506	9.82200520511958	-0.016987656794932547
1.903917	1787824725093108224	0.0022382083347671456	0.0014761629711626078	-0.0003332173390379055	0.10537821677405762	9.85540297311122	-0.06574497187257704
1.906273	1787824725093108224	-0.0001167944489798049	8.36077774453791e-05	0.0009672914633118093	0.04261130292325418	9.885385596306529	-0.07174545881023883
1.912496	1787824725099108096	-0.0014811839104914633	0.00266879061815436	-0.0016159883347842323	0.052075385080418805	9.805611297760745	-0.06727969241147633
1.918103	1787824725105108224	-0.0008541223126835789	0.0008486485158084587	-0.0029836605285045	0.07038307888116294	9.814310255891058	-0.010228756010113298
1.923014	1787824725111108352	-0.00020237386576890876	-0.0013668624611895522	0.0014927036791363942	0.04101700119173728	9.884423896917966	-0.013597356673935582
1.928165	1787824725117108224	-0.0031017192835733763	-0.002015416484304491	-0.002740054555045295	0.031714976301708324	9.809771433285771	-0.022202026296338287
1.930669	1787824725120108032	-0.002579754495849407	0.0022786301551453573	-0.0023696392454259775	0.05382675674395796	9.812559218987445	-0.027972203518947265
1.939294	1787824725126108160	0.0017421037733842527	0.000968622581630531	0.00036481944226177587	0.02868213094171322	9.823375533281382	-0.03937399018732125
1.944906	1787824725132108288	0.0009029240124848678	0.0017541447252484121	-0.0005750727086372808	0.1100611639191698	9.849586300020354	0.008403652100336938
1.945599	1787824725135108352	-0.0017145287157740985	0.0001911201172657034	1.5025016070860957e-05	-0.0038040331070932284	9.782523267593012	0.03125172371773332
1.951145	1787824725138108160	0.0014200022874148355	-0.001214015900449499	-0.0018330108937528308	-0.038538164321604285	9.810188463207805	0.02889687622366812
1.957227	1787824725144108288	-0.0007120539579104302	0.0004956480893449504	0.0025354984309368606	0.08382203782847768	9.809319189255087	-0.019997179555954828
1.962693	1787824725150108160	0.0003952296510695582	0.0008199442961614932	-0.0020561098871594934	0.006592578257716218	9.76177887733587	-0.060383271943821815
1.966586	1787824725156108032	-0.0003415437293721543	-0.001116325199583886	0.000644387086596743	0.062272898285100395	9.799598384079955	0.04634756903074071
1.973842	1787824725162108160	0.0006140519894776844	-0.0008596731248607196	8.77894795674049e-05	0.006818921710702135	9.815008855449605	0.08309524960865557
1.976698	1787824725165108224	0.001416920504389081	0.0005124582475832452	-0.0031695918019532068	0.04812101891538555	9.801880788920531	-0.08313487932295988
1.980999	1787824725168108288	0.00012198559821048877	-0.0004168206472638631	-0.00031630381281928593	-0.028390139659300886	9.86854818040012	-0.10003494144614689
1.985266	1787824725174108160	0.0016204891727090512	0.0012299309104870798	-0.00023983545878111624	0.06958518296383168	9.78843310536968	-0.0518106746250407
1.996393	1787824725183108096	-0.0013136372345536774	-0.0027124210700125275	0.0005965481956064991	0.02638843709912207	9.784300824241852	-0.0462586016361151
1.996893	1787824725186108160	0.0012132938846730905	-0.00037562597551334175	-0.0009429428396499453	0.05749967595328716	9.885400124184994	0.029717800721799227
2.003811	1787824725192108032	-5.318130879174459e-05	-0.00010704445844545991	0.0028689180016349407	0.030945939254374836	9.812242430232292	0.01569364459746097
2.007498	1787824725195108096	-0.0016646803000708494	0.0004287962425279995	-0.000652345034211481	-0.021951307510184162	9.862554110600957	-0.035293067389814435
2.011674	1787824725201108224	0.0001122178804451638	0.000611195452677576	-0.0026051025845624733	0.049856204933624804	9.803466232918355	-0.12829699373922931
2.016255	1787824725204108288	-0.00019561338573015542	-0.0015716734574153016	0.003106190196399263	0.13157462090231214	9.815477679902788	-0.018992516455655743
2.020821	1787824725210108160	0.00046656349002735325	0.0014161217112180068	-0.0006625986177354916	-0.050149564998118346	9.82591847598398	0.034689136864869186
2.028848	1787824725216108288	-0.0001835016466758937	-0.0005616605069412764	0.002315852380433455	0.0038702999748656264	9.81757842518069	0.01098995028647902
2.034441	1787824725222108160	-0.0011982099195672036	-0.0026366369145798306	-0.002030176574705709	0.04281763691532621	9.843455251157078	0.05206963391351366
2.039908	1787824725228108288	0.0006504668101904658	-0.0008316911850602953	-6.09838458398659e-05	0.07615574026840005	9.883448834197143	0.0034474306792911524
2.040471	1787824725228108288	-0.002868537371308144	-0.0018052174100030261	0.0006195436398227204	-0.032068977551725164	9.88444325571691	0.002643602245871138
2.044011	1787824725231108096	0.0018493191806719764	-0.00025310148730807924	-0.002533913437917456	0.02683429098703581	9.854694184895243	0.030893673759644275
2.051336	1787824725240108288	-0.0012917180426326176	0.002254545111625108	0.00028181539300515244	0.04157033429799661	9.826148799143713	0.0008000910335130423
2.059464	1787824725246108416	0.00026426785056411333	-0.0009129917883719991	0.002166639331032144	0.006680536858062115	9.862907338688437	-0.04482816207021393
2.064945	1787824725252108032	0.0010917555964863662	-0.0004409466965954813	-0.0030701308581397367	-0.03753568899933421	9.779094077556719	-0.058667352723666806
2.068707	1787824725258108160	0.0011534174896150131	-0.0009181235279151089	-0.0026331553134328815	0.05640130838076941	9.905027699493195	-0.08752926861270148
2.074396	1787824725261108224	0.0035932827768050232	0.0018672239847132065	-0.002086082258151403	0.02166896437178347	9.833650624232552	-0.012105043679371746
2.078099	1787824725267108096	-0.0013247052726101534	-0.00012024678889604827	0.00031120956738814787	0.038093622696973896	9.831083544022075	-0.042162057331120724
2.084592	1787824725273108224	-0.0019375254569685082	0.0011437198843527057	-0.003955645785579334	-0.050791247970016065	9.858292791188722	0.019771457454565836
2.085896	1787824725273108224	-0.0008674766337383878	-0.00026435721951484706	0.0015106263216233904	0.00797466899618754	9.794506425205222	-0.04609890529983355
2.091933	1787824725279108352	-0.0006628811850764772	0.004848345519181118	-5.054493363149449e-05	0.11083579946750065	9.784940291764329	-0.07293137193519085
2.094608	1787824725282108416	-0.00020248917352417396	0.0003640113540838588	-0.0005812938730816346	0.01714569997188635	9.853298134415711	-0.020139291676280216
2.101553	1787824725291108096	-0.0001935013800538714	0.0004259373231352017	-0.0027611040125074225	0.017237778150119593	9.918370801530072	-0.0034587715934139875
2.105275	1787824725294108160	-0.0004540713038379005	-0.000796594197156304	0.0013895040944211792	0.08988596506307286	9.81255303518008	-0.012942628848595056
2.112927	1787824725300108288	0.0016287620529454238	0.0016879477067144719	0.002228737509276834	0.029688082995385667	9.838620094027377	-0.13206138800668485
2.116717	1787824725306108160	-0.0018274744996847855	0.00010200159326918104	0.000982737812047515	0.06162802788112709	9.768551135830329	0.02817602862284735
2.119926	1787824725309108224	0.0006872310831166178	0.002009313722832413	-0.0007009556599642802	0.07026353564461484	9.841567348402407	-0.10682585879556268
2.128139	1787824725315108352	0.0010492060057568351	-0.0004838498238641407	0.0025596608492362677	0.03598506993207833	9.833997584848547	-0.009194718699228964
2.131336	1787824725318108416	-0.001171544118000093	-0.0006684231657830147	0.0010195496298054728	0.0516968921389795	9.86998728809287	-0.09367039753097653
2.135473	1787824725324108032	0.00023318691305187637	9.963982438408576e-05	0.000932422450713701	-0.00927226835095029	9.758961818948546	-0.029426014778768474
2.142474	1787824725330108160	0.00047970960098689223	-0.0002547444042235446	-0.0005085085520223014	0.09797074700563368	9.803346731132955	-0.08766096870429947
2.148140	1787824725336108288	-0.0007867175827355197	0.002565534693890706	-0.00018892135534429494	0.0816361661011111	9.797538239512745	-0.07899736866049102
2.153473	1787824725342108160	-0.00017242712845668578	0.0020412011140941797	-0.0001302486016588792	0.004038508273346994	9.872214845679547	-0.050675501541300516
2.156173	1787824725345108224	-0.00030486827276473465	-0.0010054989191979782	0.003568089409324375	-0.005616518825013676	9.786999104008547	-0.07989436412203994
2.162219	1787824725351108352	0.0020724732219081273	0.0021118989789548352	0.002357967397634047	-0.0364427239500269	9.858561893455633	-0.03239885349102511
2.167598	1787824725357108224	0.0024706122328933167	-3.9493838648605974e-05	-0.0006453736751023176	0.011075935143396092	9.804079751080588	-0.06185463210240843
2.174822	1787824725363108096	0.0007717442191342255	0.001044250462161371	0.0002812623085817889	0.06045958216035882	9.79802559935621	0.01717893729110697
2.175802	1787824725363108096	-0.00264648132377013	-0.0008085120530625541	0.0008416579846525483	0.10471416588119348	9.771324010773755	-0.01934421694306545
2.182819	1787824725372108288	0.0010433900098872015	-0.002178760553275804	-0.0011691162732817015	0.08556092144828575	9.840953240462106	-0.07104179257066749
2.188834	1787824725378108160	0.001335833153316627	5.1145721848884566e-05	0.0008303036267657987	0.028564670855814503	9.801686845107191	-0.03669990051080971
2.193069	1787824725381108224	0.0004186639882685962	-0.0007539429875425097	-0.0014217391540004044	0.026020917502924932	9.906440164050212	-0.02911210079793236
2.197656	1787824725387108096	0.003815040668137746	0.0015502861250375366	0.001993295766817416	0.01682007311407585	9.860190992763492	-0.04049413394895863
2.202833	1787824725390108160	-0.0014557818553662997	-0.002061798845663545	0.001271364781924491	0.08413782877106349	9.902143467673529	-0.04252956061384099
2.208683	1787824725396108032	-0.0009540267022594255	0.00013368552394126966	-0.0007718006896100082	0.027696839581517724	9.819783563625984	-0.0158762401076529
2.214456	1787824725402108160	0.004228050133735023	0.0023709232939813267	-0.00011559444148624966	0.04789283116657781	9.854609692545921	-0.054756297148732654
2.217634	1787824725405108224	0.0017668898028000161	0.0018119523033555032	-0.0009579608722446372	0.061714686571593964	9.75477015360279	-0.10429113069831886
2.223213	1787824725411108352	0.0001755059273995577	-0.0001285470537455874	-0.001617560408298054	-0.005835188863938655	9.790460859387219	0.007181115579276427
2.228140	1787824725417108224	-0.00031568763779780983	0.0024049939482700183	0.002568276249802778	0.0008310755774699544	9.84676931691641	0.029332794758664384
2.231674	1787824725420108288	-0.0012188817632365209	-0.0018776890194723583	0.002212483880662034	0.03099304290470556	9.772180432174276	-0.047685501881744474
2.238152	1787824725426108160	-0.001839966177039719	0.0005545771476028117	-0.0005601483554926671	0.00812884753018487	9.869495756860138	0.06058086853478023
2.243454	1787824725432108288	-0.00031023407144711466	0.0005378460451606487	-0.0023185938832575603	0.02570090405296853	9.807145456571732	-0.06202622357151435
2.247902	1787824725435108096	0.0012601178589983994	-0.0014838774522072421	0.00163611096025321	0.0653343605194418	9.75021286589192	0.044782876235388874
2.253909	1787824725441108224	-0.001851065798993829	-0.0008001171779015145	-0.001649445647632478	0.050787373880555695	9.811675238340348	0.05577091911382401
2.257869	1787824725447108352	-0.0011917436105239715	-0.000540229643444659	0.002401268719876218	0.04509797612712552	9.84652990640572	-0.019050807336887084
2.263134	1787824725450108416	0.0023566370125002066	-0.0003112749473661	0.0020994481933571812	0.04031489428235379	9.768907744018971	0.013634505094494508
2.266242	1787824725453108224	-0.0021091449352173713	0.0016754060360448448	0.00014755518485317954	0.052960204357601764	9.814169791001529	-0.012322922290307094
2.270820	1787824725459108096	0.001423702045884133	0.0015668866152300654	-0.0010148031466630679	0.08406069448494945	9.802234220817823	-0.02450074049312841
2.279187	1787824725468108288	-0.00046408588863071983	-0.0005308684098162866	0.0007977988425003383	0.05243226636587972	9.839146068308692	0.036254774446045704
2.280636	1787824725468108288	0.002689070160460097	-0.002807349273472664	0.001659490234895945	0.05426420913639833	9.871053588367717	-0.0886617199290117
2.284359	1787824725471108096	0.0006258572215768286	0.0018236676247221555	-0.0023641456099684466	0.006044231231733137	9.900464111308908	-0.04847709328905414
2.290759	1787824725480108288	0.003313621686116501	0.001908757145268751	0.0012956430336872517	0.02032608587123767	9.880972110060823	0.021334651791895608
2.295992	1787824725483108352	-0.0006506145537176006	-0.0017438297586662946	0.0008957216886668136	0.07827562489310105	9.79397662312701	0.021677421491023453
2.301414	1787824725489108224	-0.0009621380288629192	-0.001203762932274184	-0.0008964922859167209	0.11003004562169431	9.780912820427483	-0.08555723552573335
2.309513	1787824725498108160	0.0008355556609790668	-0.00010088330436890908	-0.0030610799699322304	0.007737022733990011	9.832073481695579	-0.02418591323740256
2.313568	1787824725501108224	-0.0017157197407196684	0.00010976994054915309	0.00038020586237687406	0.042790171609574386	9.892516867637424	-0.022667277260006696
2.318007	1787824725507108096	0.002567332186095864	0.00073292418826479	3.416000266529353e-05	0.04255332359985087	9.776724063569366	-0.10324133107662624
2.321042	1787824725510108160	-0.0019201163172316638	-0.002472728669647037	0.0015587765280655956	0.09243990228330093	9.866458206842388	-0.051529359083712936
2.327769	1787824725516108288	-0.001214180105101181	0.0005014905359103019	0.002903816120958408	0.020225400987303403	9.855111582270073	-0.035893863280135434
2.333463	1787824725522108416	0.0004210879131103909	-0.0009786632415809396	-0.0013892505531427853	0.02809946135474481	9.785442543932247	0.009681666830102902
2.340812	1787824725528108032	0.0024934416945100444	0.0026952153615431925	0.0013713255510940797	0.0684452830484698	9.871125522342679	-0.017887881569515346
2.343265	1787824725531108096	-2.5900912905310448e-05	0.0008471747841043594	-0.0038726811845850766	0.0023033151527147855	9.797173508921746	-0.03435656653113394
2.345576	1787824725534108160	0.001031254328070533	-0.0007744763822757467	-0.0022932869469910965	-0.0447383281964636	9.690469656462641	0.016343125673178388
2.354638	1787824725543108352	-0.00011741021243614142	0.0018195584360467475	6.898193015020439e-05	0.07673363425543336	9.848628406673246	-0.056291585759932414
2.358135	1787824725546108160	-0.0014152368654228062	0.001882899378349036	-0.002529184545984954	0.0473670901258397	9.83741728789537	-0.017249703939699094
2.363784	1787824725552108288	0.004434309113378324	0.0006716885696198077	0.0029368041147569673	0.08848617976917367	9.86500417110142	-0.0092359539508832
2.366701	1787824725555108352	0.0018457744068216273	-0.0003103178637945843	-0.0032320107249181875	0.09992220013627404	9.759482454501116	-0.08715469029689099
2.371115	1787824725558108160	0.00031949852737292125	0.0016432081271853796	-0.0006265466002443459	-0.002828476291706683	9.917569770787662	-0.020907558366455532
2.377370	1787824725564108032	-0.0007183234034187206	-0.002013989480024552	-3.5256937950163375e-05	0.11529553750697745	9.875010544872277	-0.0667659511435128
2.382186	1787824725570108160	-0.0025380791108352346	0.0012345439247341936	0.0005101049924309739	-0.0026327734425648577	9.896544905505284	-0.0716372543565964
2.388658	1787824725576108288	-0.0004287705825972623	0.002390327935219525	0.0015282848152857816	0.036823552475654164	9.909229087975994	-0.0016744838494755741
2.392477	1787824725579108352	-0.0003154007952210244	0.00044901754908935776	0.0023329037154185784	0.10560634870207056	9.726173836665954	-0.04707976583753223
2.399227	1787824725588108288	-0.0012828031681950463	0.001599913298516479	-0.0006719486860342649	0.07121577102071619	9.90534463158632	-0.04294265582687831
2.404735	1787824725594108160	-0.002346360393495855	0.0041268358768765286	-0.0019523204965127172	0.06317762931644264	9.816251714003831	0.01629018748711005
2.407527	1787824725597108224	0.001347812101954294	-0.0019160188048153225	-0.0005702085209649669	-0.07303842260119188	9.792691015832036	0.016827603491612886
2.410451	1787824725597108224	-0.0008566821226283316	-0.0033284407322695733	-0.0008742207826533963	0.07817557666851319	9.826254415586476	-0.030741367655947868
2.418180	1787824725606108160	-0.0012502459587642682	0.0037281831720492693	-0.0014039867922504804	0.06456170188067385	9.89451182298926	-0.05816138954285133
2.423521	1787824725612108288	-0.0003627217689114765	-7.712215996776329e-06	0.0018077322434747298	-0.012978025860850978	9.752312635863504	-0.02318180769624263
2.426563	1787824725615108352	-0.0023178702353405557	-0.001638304124152318	-0.0010873975429977955	-0.016807049466643395	9.81557301147332	0.03142752393206242
2.431804	1787824725621108224	-0.0013573266163542388	-0.00039577489085695656	0.0009065671715322867	0.07299089121119734	9.770979528982554	-0.05651602683815786
2.434410	1787824725621108224	-0.0023143205449866334	0.0005851200910898739	0.0008028907482176504	0.03311403642564331	9.783169686536217	-0.01891396213643003
2.442408	1787824725630108160	-0.0011142956134757942	0.0031252039216523426	0.002085060421373815	0.03774514790756959	9.857518780242046	-0.04054842553886283
2.447087	1787824725636108288	0.0013224742709698537	0.0010370541570746533	0.0009166773147063565	0.05701762749166191	9.788070794812306	-0.0020162419136876553
2.452237	1787824725639108096	-0.0006512645914493071	0.0003329822173761437	0.000713181608665843	-0.00527882242593139	9.820532551893095	-0.006132076213781302
2.456673	1787824725645108224	-0.00410979860834924	-0.0017183238498907141	-0.00238428808267133	-0.008069683023823507	9.834869714289855	0.009605062879293552
2.461073	1787824725648108288	0.0003509682939358569	-0.0008477857836863673	-0.0008945008752025758	0.013803678600546727	9.842730884353836	-0.024022135881082055
2.467636	1787824725657108224	-0.0017833553262886989	-0.0010444675171751164	-0.0002660128937820826	0.07222851995422017	9.823808465665097	-0.04190064737484761
2.472194	1787824725660108032	-0.002403814964175472	0.0001640997899095342	0.0022043511279741927	0.016664410413331582	9.7478587001731	0.028668837524195266
2.478492	1787824725666108160	0.0034282888569240055	-0.0014759626348725262	0.001936251587370965	-0.006052990809124206	9.91799658683817	-0.04041137333017185
2.483212	1787824725672108288	0.001572048635660907	-0.0006816713673370575	0.0014847046195174839	0.05213994735788369	9.83088669155628	-0.04517689697177589
2.485400	1787824725672108288	0.001194180095329814	-0.0007952022649801167	0.0013419621620924496	0.10937417906049073	9.8870031737732	0.00424415932520978
2.490709	1787824725678108160	0.0018243490666954554	-0.0006788581190259159	-0.0014191268650627226	-0.019986834657910797	9.819521522991552	-0.011617007894460404
2.498076	1787824725687108352	0.0016138507551567538	0.0002644612931191045	-0.0013289155332264625	0.12271457390951333	9.884193025694815	-0.07028363228631292
2.501888	1787824725690108416	-0.0003363988691420275	-0.0007039773456705825	-0.0024438263427615688	0.11952354802459762	9.794972642350254	-0.11306101907186052
2.507340	1787824725696108032	0.0009639200527572765	-7.977712762662363e-06	0.001986804516858293	-0.02428488844618293	9.799072913991319	-0.024906164475901583
2.512452	1787824725699108096	0.0027488897180606426	-0.0014221046899173307	-0.0011805967862440474	0.03146225190139594	9.82598956168548	0.012930551332542443
2.515948	1787824725705108224	-0.0018620999175065938	0.0015612882555452547	-0.002419055524226668	0.026589967257278205	9.915910403859638	0.04961078157602662
2.521028	1787824725708108288	-0.0024907560037414774	-0.0019161022335838585	-0.0005458277090590159	0.054100697644033593	9.788950723160772	-0.01698619704020614
2.526387	1787824725714108160	0.00018966475594520366	-0.0007913596701057614	0.002665720269560465	0.10879037879116707	9.871841564152705	-0.06953450790995161
2.531798	1787824725720108288	-0.0012811693312018459	-0.0011890561987191574	0.0016458443751942112	0.06998810415746667	9.846467892992568	-0.0646038852635287
2.539980	1787824725729107968	0.0014456673749261375	0.0014452538560427875	0.0024480986424784703	0.027163305046779305	9.875274674925075	0.021812871800295883
2.544633	1787824725732108032	0.0013473163229877053	-0.002803848276690367	-0.0022148586405401753	0.0664595989543899	9.850961385384604	-0.05351706020802538
2.548492	1787824725735108096	-0.000787786413226759	0.0018052552341070664	0.000882292406056919	0.04247629096108898	9.9039252839526	-0.02256433910665736
2.551675	1787824725741108224	0.004842900122590107	-0.0012940637620811	6.526652803292296e-05	0.058840201977756995	9.78376733524658	-0.08819712418274349
2.557998	1787824725747108096	-0.0008556082676756619	6.437855554732762e-05	0.0028930372139136296	0.06948968361093438	9.806076649868041	-0.036562571020872646
2.563041	1787824725750108160	0.0011456493402179403	0.0026174799476270287	0.001018563687708434	0.033471490919310544	9.79526386945008	0.021162344591014737
2.566550	1787824725756108288	-0.0006616564038866621	-0.001033487289847552	0.0020956106940948262	0.06550520433688109	9.80878961185915	-0.009817188744330404
2.571916	1787824725759108352	-0.00030556247692136264	-0.0024215997599109714	-0.00014405694890410806	-0.029337945132584628	9.833953217945638	0.001696561330405067
2.579801	1787824725768108032	0.0008329120914541532	0.0019155063750265777	0.0012393916765070891	4.1517159773886425e-05	9.88130579056135	-0.011763166572606586
2.582378	1787824725771108096	-0.0013546235466333101	-0.0013892819930450616	-2.027254332615214e-05	0.07161028201531	9.822775888503356	-0.011693297948005322
2.586151	1787824725774108160	-0.0023223208857151554	-0.0007553954095049957	0.0008914475335309853	0.09391449638447319	9.880723476138826	-0.06335768296312201
2.590723	1787824725780108288	-0.0018808609596510449	-0.0007854953860950782	-0.0009648548705205315	0.05609799143733061	9.851404279923273	-0.06863187439946147
2.596398	1787824725783108352	0.0005175415525271951	0.0018371040149106218	-0.001088653490344335	0.046217476355980926	9.827758975745855	-0.03458337036855225
2.603293	1787824725792108288	0.0007902855430164976	0.00013054109642922755	-0.0012735541725854636	0.06635202357756664	9.85815444018403	-0.008291936246862561
2.608635	1787824725798108160	0.00223192670304339	-0.002094460275666072	-0.0009739691639815821	0.08029574489217056	9.80529302315928	-0.07099938492527656
2.612025	1787824725801108224	0.0008242290192247502	-0.0018335267708398688	0.0011402548639109005	0.04684180179879458	9.838010039031566	-0.027777923627942073
2.616055	1787824725804108032	-0.0007763994644116917	0.0009330301864210239	0.0023275174482096476	0.0414562898413776	9.84236271174185	-0.0584653846941225
2.623467	1787824725810108160	0.00011448246443991116	1.113707663099224e-05	-0.0008170372768199832	0.05197185263172236	9.805594490111499	0.008496285475715883
2.628847	1787824725816108288	-0.0016302114131704092	0.0015882546378616638	0.0018349368537466163	0.0702402137933494	9.812972166957666	-0.0999899065479538
2.634347	1787824725822108160	0.00018490938275399752	0.0018875449242648735	0.0011594372833274684	0.031037156784160042	9.887345568226321	-0.02695928866834459
2.635449	1787824725822108160	-0.0022429298269611747	0.0019016417077765586	-0.0034663292550841584	0.09630400842408511	9.82683305768516	-0.042416768385273716
2.643777	1787824725831108096	2.3119089527477872e-05	0.002379143419078784	0.0010514712886979685	0.08027668812993163	9.798826589576473	0.012345741894719264
2.645526	1787824725834108160	0.0015851149998317433	-0.00015312238069563179	0.0003609067943218351	0.13284233508019666	9.905939050215368	-0.03531646642661487
2.652233	1787824725840108032	0.001282634769119585	-0.00042281930421566444	0.0023419544578709064	-0.04279094395498899	9.793730200817805	-0.0632330359796827
2.657213	1787824725846108160	0.0006169861929982863	0.0008264406377632597	0.002977087335958277	0.03971697442365173	9.766298683663244	-0.032923194211761105
2.661777	1787824725849108224	-0.0019735311888404833	-0.0035698596238916327	0.000307208907315986	0.06148278746370406	9.91836798794274	-0.11876015396912397
2.668698	1787824725858108160	-0.00022805457652712367	-0.0006858465623513421	-0.002296289494257127	0.028267098419476458	9.823634617118653	-0.041332727762416324
2.670900	1787824725858108160	0.0001307312512194371	-0.0017153024392977654	0.0015063645014489263	-0.009753635973748766	9.81037339264643	-0.056338536124922955
2.677174	1787824725864108288	0.00051591767022505	-0.001441632177176707	-0.00022425305222499977	0.028396345282940046	9.829235959751026	0.007079666013234377
2.681868	1787824725870108160	0.0007563088835220984	-0.001327292483410628	0.0008401369571554205	0.018782364392042904	9.861908838559511	-0.07021682347549796
2.690261	1787824725879108096	-0.0013868377804919067	-0.001250799179740534	0.00044579816465425406	-0.04275523387408757	9.844190234645943	-0.06229690532862252
2.693366	1787824725882108160	0.0011011230888136935	-0.0030372932947835734	-0.0007047486386613742	0.07295418812132967	9.907279982940867	-0.047159507412259355
2.695006	1787824725882108160	0.0036845477461714187	-0.0023731120321464965	0.0018793014600225549	0.09531109600874305	9.785719481904641	-0.06432562664200075
2.703028	1787824725891108352	-0.0025708977201965	-0.000760393907188789	-0.0018537731257104496	0.06706179388928599	9.815907938195373	0.002180571802194095
2.706852	1787824725894108416	0.0002458197782427412	-0.002688422311260003	-0.0009640095033999673	0.0981762864358417	9.897649450386648	0.009275465038058608
2.714608	1787824725903108096	0.0014743632025148955	4.042044832259348e-05	0.002138671447709176	0.0554071934322307	9.804705137027558	-0.08286871145984956
2.718040	1787824725906108160	0.0005476715658420616	-0.00025278251617536255	0.00208136307933373	0.04369198422528153	9.896077534955243	-0.07276807593524696
2.723192	1787824725912108288	0.0007466412088180535	-0.001038596765060232	0.0015282974592290676	0.006404596807172515	9.810866842323959	0.015259222295533684
2.728130	1787824725915108096	0.0013025392741147937	0.0002298060423781203	-0.0001186362336456911	0.117527763654256	9.83627616962982	0.039854063901295436
2.732463	1787824725921108224	0.0025664370144298453	0.0013851276545238395	-0.0017294030088536572	0.07702535342741186	9.805125454481951	-0.04258821706815768
2.738007	1787824725927108352	-0.0012011377248101827	-0.001705672711838017	0.00036265527889774553	-0.04870737083606272	9.82817216575831	-0.12918587423495126
2.739987	1787824725927108352	0.003265301583880364	-0.0014089608465799792	0.0022192953773477716	0.008546651072119663	9.879277352650137	0.0351327615232057
2.744951	1787824725933107968	0.001279572613764456	0.0003762004704090296	-0.0015209811897036053	0.04734814693652156	9.890280905483163	-0.06092544241952175
2.749937	1787824725939108096	0.00038917488326929223	-0.0018784699376585344	1.4561070942982722e-05	0.04686442755950471	9.81577065445367	-5.38260066119331e-05
2.759772	1787824725948108288	0.0013563658472567875	0.002143612292108602	0.00022992490116981559	-0.023056017385251037	9.873207037521562	0.06808325116466435
2.762160	1787824725951108096	-0.0005735665706805581	0.0011007630801528495	-0.001700604944011472	0.025609724446380128	9.752131869573581	-0.03843472066390606
2.767356	1787824725954108160	-0.0021778910643926214	0.0012257978789987952	-0.00047792721737742146	-0.024782894822386395	9.854895077394737	-0.018269174738545193
2.771866	1787824725960108288	0.001741937860228676	-0.0038857372785980403	0.0009390967373505558	0.05342321041883787	9.861978446348667	-0.047817812117797114
2.777759	1787824725966108416	0.0018976417247016637	0.0027679768883510534	-0.001332486445076995	0.05591857593797271	9.91251476974072	-0.002554004403280699
2.782198	1787824725969108224	0.003304537256183075	3.735929929654419e-05	0.001483342463503675	0.07531421828565928	9.77237392967083	-0.007398690030234946
2.786806	1787824725975108096	-0.0009146412172382842	-0.000690698382320835	-0.0024003328522937133	0.06499546353074821	9.927125175652401	-0.022517162794232
2.791039	1787824725978108160	-0.0010047910662902386	-0.00019724883123721973	-0.0024831518762727877	0.1027029564164594	9.813503935617186	0.0036020901947872094
2.795973	1787824725984108288	-0.0005785906129594786	0.0007009248201638936	0.00033125808125134324	0.07547393057510327	9.824613239814683	0.03787347490787986
2.804343	1787824725993108224	0.0007928746666724161	-0.0009530392293202242	0.0007946065356703525	0.058136485594677795	9.894559923738763	0.02268964926092041
2.806435	1787824725993108224	-0.0021152578297607035	0.0003920323999665697	0.0038618537582994867	0.039945529308119045	9.868337358556884	-0.0018489105906761422
2.809509	1787824725999108352	0.0009488066907911343	3.02324533724351e-06	-0.0017790008105258229	-0.016584117327651852	9.763336090941587	-0.13202821209714394
2.817777	1787824726005108224	-0.0009997815282512769	-0.0007615110285402219	-0.0002950927070451843	0.08340337261200409	9.796814355712094	-0.05789651641234028
2.821200	1787824726008108032	0.0005104040500435378	-0.0010261479137655253	0.0005089972962369982	-0.0061159320270931725	9.803697706350045	0.02186183236147988
2.825784	1787824726014108160	-0.0008918974349688051	0.0032643623142060416	0.00045420604231880056	0.06875962647022615	9.892273380381834	0.016025630357133155
2.834608	1787824726023108352	-0.0012022842401180516	0.0011066885638035971	-0.0005315397023973174	0.04710257832095838	9.827673349290535	-0.14136035884196935
2.837558	1787824726026108160	-0.0012490739426692737	-9.493683691023336e-05	0.0014691399384297536	0.014989064152281097	9.828737419942621	-0.0016787520446747556
2.842223	1787824726029108224	-0.0001490920016804085	-0.0012011965018734756	0.0006347140980701172	0.09345239377872938	9.810861817099607	-0.045546036247938126
2.847656	1787824726035108096	0.0004930076785686091	-0.0013095937768043684	0.001645678741853337	0.0912618214528075	9.876391734937398	-0.03674586655538142
2.851402	1787824726038108160	-0.0002072796607132951	-0.0014989444512145092	-0.0007534601191591175	0.013331614970605667	9.890526192359664	0.038043805922957835
2.856293	1787824726044108032	0.000804608327538585	-0.000253861230818162	0.00138724835455343	0.008978408536570406	9.760386124194541	0.0030421616087222964
2.864041	1787824726053108224	0.0030175247582013014	-0.0018436942660407284	0.0005219543606699464	0.11429620485071285	9.825853523900376	0.027946211395085484
2.870554	1787824726059108352	-0.0006766340051227869	0.00019718666008816186	0.0009955559873708359	0.014761367027155237	9.871209035184895	-0.05696440125571085
2.874204	1787824726062108160	0.003990682522830063	0.0010494593051355527	0.003221511340000732	0.059692219651191855	9.837241939425116	-0.005660329133233069
2.880089	1787824726068108288	-0.00011463568510867952	-0.0021728506738145797	0.0016483649826884792	0.07565620105828125	9.866037144621068	0.012965781479069495
2.881877	1787824726071108096	0.003073851946715138	-0.0017288053069767998	0.0020667680017646987	0.005109893559837458	9.790974394736965	0.004940549125170474
2.886922	1787824726074108160	-0.0022985940799889943	0.0008650630046940338	-8.459720551942619e-05	0.11957776592243478	9.894278756294021	-0.06975362486339828
2.892327	1787824726080108288	-0.0010281543213116575	-0.0013116180127796839	-0.00035922592799076866	0.014347805262316413	9.74182011643541	-0.06120992329661978
2.895809	1787824726083108096	-0.0002039059508369756	0.0002428366500434471	0.00017097886725999647	0.06387841910861625	9.820453415312413	-0.09864717020030524
2.897887	1787824726086108160	0.0013460437324226107	-0.0006417492047430832	-0.0008355957203999147	-0.02021305842518282	9.847968703010025	-0.05504727852505366
2.910333	1787824726098108416	-0.0015890175966084066	0.0009719235981646926	0.0005399786376795001	0.04832525693456054	9.87801362836587	-0.02764661158011566
2.913306	1787824726101108224	0.0005426976041841065	-0.0012207766558661975	0.002996679012804289	-0.008874940319826843	9.93319952399338	-0.13224876521920598
2.918915	1787824726107108096	0.001814323625885504	-0.001269003349338205	0.0023559247902321463	0.04454903453584211	9.764716276448604	-0.05126137447920401
2.922621	1787824726110108160	-0.0031764500626958736	-0.0018383063972930978	0.0021831099129163475	0.09166068887594431	9.881436926846035	-0.15881847169562782
2.928080	1787824726116108288	0.0009657232935820473	0.0010552250256581784	-0.0015447635256837706	0.039201427429453845	9.842377085118061	-0.08333397196105098
2.931041	1787824726119108096	0.00249449442502359	-0.0004072534234224422	-0.0006290452410347772	0.015751217651239567	9.831860348796353	0.013567158560070257
2.937571	1787824726125108224	-0.0017393220949268912	0.00012060854307241277	0.0007805278970603053	0.008551476125164346	9.804300366840257	-0.12238380058950518
2.941952	1787824726131108352	0.0005308950499205385	0.0028206368614435537	0.0010395478088875965	0.039259677059744987	9.790500170622693	0.012042135691739266
2.951546	1787824726140108032	-0.0008705621532519538	0.001200216703282482	-0.001696153659226908	0.10664008628765527	9.833733120050981	-0.04854779942348247
2.952046	1787824726140108032	-7.354178526317792e-05	-0.0008839959874372157	0.00044965623926141536	-0.012297320321601468	9.868981264854014	-0.04025427219743746
2.955194	1787824726143108096	0.0016732830408103527	0.002496653319597598	-0.0020829731285799415	-0.012800217550024896	9.82940993174778	-0.07991113207470973
2.961848	1787824726149108224	0.0014698661753728339	0.0006547982880503507	0.0008460239904886946	0.16117848778306304	9.776796256797429	0.03948857059399348
2.970657	1787824726158108160	0.0024468512361001827	-0.00018300035853980478	0.0011204711103038204	0.05191713910888338	9.822706814278726	-0.020975806826316612
2.974676	1787824726164108288	-0.002242108740059048	-0.00101220048415657	-0.002786143895938374	0.0847084137665064	9.771723753559804	-0.03400034459596549
2.976807	1787824726164108288	0.0014613030204996722	-0.0023455373039194044	0.0012723171500284313	0.01747636418509997	9.838684740632303	0.022667718632403876
2.981446	1787824726170108416	0.0022371746574020948	-0.0017403231583790002	-0.0008088721113752613	0.042031298866064805	9.819906835322124	-0.0601459641086072
2.988248	1787824726176108032	0.00021815578656302607	-0.0010009816258164824	0.0005316931186077589	0.006809095534606659	9.851320390486903	0.01765847161359784
2.992371	1787824726179108096	0.0004029158639161641	-0.0028019459064662073	0.00036225207769138097	0.07092539971668216	9.898427684952154	-0.06630187817442511
2.997559	1787824726185108224	0.0010619072394884616	-0.0026073136067489514	-9.107978785213039e-05	0.0842749339701463	9.836324820850537	0.0015529310913034895
3.001540	1787824726191108352	0.00015606735539245648	-0.0006660856654343099	-0.002062517136536387	0.07161538333491246	9.958990183382936	-0.03718691182424727
3.005810	1787824726194108160	0.0007832093104280743	-0.0009132771177235271	-0.0006784108023089266	0.10509035519707648	9.812665749330563	-0.06467621995757714
3.012364	1787824726200108288	-2.893268025597327e-05	-0.0010047212817857743	0.0015196131434030437	-0.029288130165496293	9.758022249086338	-0.0010564151193092827
3.016075	1787824726203108352	-0.00027406443287014383	-0.0018252640345271128	0.002533366446507221	-0.033032925278563344	9.865275110037334	0.0058547972028900955
3.022044	1787824726209108224	-0.0001943131127494458	0.001366678782992982	0.001753847393414661	0.03350440220044708	9.741313821560432	-8.049761798031158e-05
3.030613	1787824726218108160	-0.00079325375684172	-0.002049517645325733	0.0029222088872157726	0.07903134824290914	9.78016750038356	-0.020494390746887282
3.032407	1787824726221108224	0.0015318258593556178	-0.001859932664645574	0.0002489885041084562	0.13945355225039033	9.804273349138038	-0.04637605651386132
3.038709	1787824726227108352	-0.0007543517668141634	0.0006797286769052016	-0.0023592138998719185	0.08325409467948294	9.824139613453822	-0.023784475772860685
3.041977	1787824726230108160	-0.0006417386594006554	0.0015534807656752956	0.0003170921045072617	0.07229993275016874	9.83988848788418	-0.0802476969056718
3.046423	1787824726233108224	0.0033868368354086882	-0.00045193366135220354	-0.0024165402873434416	0.015832905941328603	9.8662695275283	-0.0522841313156403
3.052146	1787824726239108352	0.0005060367154700092	-0.0011106204184509621	0.0009805718851938201	0.07575647716856988	9.932193807228003	0.00635202922730093
3.061495	1787824726248108032	0.0008428637103048214	0.00031050025401364054	-0.001521502037605444	0.02092437263758274	9.855815511591999	-0.01994993291394854
3.061995	1787824726251108096	0.0021382356218212677	0.00017622271205851954	0.0019084323560479963	0.033797043562323846	9.83527587116635	0.02237710044426435
3.066352	1787824726254108160	0.0013773561532736268	-0.0005485314744511072	-7.540363898037348e-05	0.036155741519145995	9.883996591158134	0.016950730483272163
3.072806	1787824726260108288	0.0026804901842215454	0.0009811341316429323	-0.0018223406622693067	0.09752814235714112	9.81266752117962	-0.1003284339363632
3.078976	1787824726266108160	0.0018198999289795604	-0.0010933497978484004	0.003909896568019215	0.04017522574759559	9.764389799535053	-0.042934043881702036
3.084933	1787824726272108288	-0.00026669859484297566	-9.110112700762925e-05	-0.001692707070520385	0.07000141877993488	9.877814655600485	-0.10463525671171206
3.088554	1787824726278108160	-0.0019264521663667595	-0.0016896097412243069	0.00017027438305814026	0.05430707643349957	9.91008194515481	-0.044129057832618966
3.092624	1787824726281108224	0.0032833556569115377	-0.0005253035888070034	0.001699740085204903	0.02793516609938351	9.795608867621782	-0.09609224777981457
3.099677	1787824726287108096	0.001972808146900711	0.0007041823570639939	-0.002160591725505679	0.013007801506935819	9.852761808615398	0.0433539576441441
3.102417	1787824726290108160	0.00024512123695144225	0.00015651761652089855	-0.001682888907661671	0.06522187382864278	9.813749122592133	-0.03264292154605783
3.106443	1787824726293108224	0.0030854485768739407	0.0015048308791206875	0.0022629659317195687	0.11204848644923504	9.851601389225522	-0.11872777806642101
3.113308	1787824726302108160	0.00180052946531485	-0.00025386087585400235	-0.00037349928990301404	0.00920554188506668	9.919823587713077	-0.05248470391040948
3.119333	1787824726308108032	-0.0010339593186183365	-0.00019316165407428745	-0.0015205953938453372	0.0356773250146	9.851082055279125	0.022621258374696036
3.123216	1787824726311108096	-0.0006741734767407246	0.0004996274172124765	0.0011204406057873588	0.10750064826553753	9.85104022609983	-0.01970173004338094
3.129119	1787824726317108224	-0.00039188867653146476	0.0011682928622704356	0.0014262219121390816	0.08840769326151389	9.86476741030264	0.029572709307115114
3.132275	1787824726320108288	0.0002937792201460824	0.0008262090419385142	0.0017757283270478502	0.012106259519873718	9.923744803476373	-0.02965004986772415
3.134541	1787824726323108096	0.0021391700700230804	-0.002283146843252003	0.0015086919303571643	0.0598983750214878	9.849490365478001	-0.0709991804547698
3.144231	1787824726332108288	-0.00012332288169775537	-0.0015181498623518192	-0.004083955259009912	0.0020570856377412766	9.821268646269951	-0.028168132032153848
3.148552	1787824726338108416	-0.0031354722470129694	-0.00038697594899922926	0.00026652784701925716	-0.03298762317853937	9.857327248482626	-0.03341590535694198
3.152394	1787824726341108224	0.00023075408568273506	0.0033759624884290135	-0.0015104928192042986	0.02562938206182222	9.810778997617177	-0.040632148923613526
3.157380	1787824726344108032	-0.0021316923097047602	-0.0007431417853729086	0.0003493939977206155	0.07759335497044365	9.839379599501129	-0.03375049709059594
3.159596	1787824726347108096	-0.0003298390948505092	0.00043312359823834536	3.3859129864054984e-05	0.0063350252363856	9.839701413997188	0.005710716146062854
3.167355	1787824726356108288	0.0007558880281753243	0.0006340223171598404	-0.0018647899195146722	0.061011525497680505	9.84768561447426	-0.011937784699061631
3.171689	1787824726359108096	0.000570117229613105	0.0005620085202366719	0.0008522435545946222	0.0327495427294712	9.819691680793483	-0.00438827548936855
3.177576	1787824726365108224	0.0008713071752375688	-0.0005543229432444048	-0.0008358399487516121	0.040462317907558346	9.869991686441066	-0.0907453287882404
3.181198	1787824726368108288	-0.00010548282542522553	1.0713078400699755e-05	3.4480483054620015e-05	0.05830315904985979	9.850109995789905	-0.04773190470446599
3.187750	1787824726377108224	-0.0005491720474053461	-0.0016172112598068966	-0.0007045134723891212	0.07501453109130471	9.867032386158705	0.0008849618348553204
3.192064	1787824726380108032	-0.0007558550658597711	0.0005004864779858157	-0.0028929075665168297	0.0992532225886418	9.85368262983562	-0.08257889689348108
3.194514	1787824726383108096	0.00283574746909073	0.0006518904117486639	0.0019421159046141858	-0.010382997453747829	9.833434894801066	0.0017109805452559003
3.205702	1787824726395108096	0.001253208565938142	0.0004556745175052925	0.0009041959333243477	0.02550653226348097	9.79844150486941	-0.047852724555298536
3.206202	1787824726395108096	0.0003558231736313126	0.001093357635889091	-0.00354448861353723	0.0484649353738707	9.91203953853998	-0.03174019131410241
3.212644	1787824726401108224	-0.0010479445002502018	-6.835050390317508e-05	-0.0012924595214467893	0.11415293088624316	9.886956371334422	0.026730818851132904
3.218643	1787824726407108352	0.001033585177042049	-0.0006765025013288704	-0.0011806555624894422	-0.02416748466288106	9.849148667225508	-0.05761550990073013
3.220521	1787824726410108160	0.00020432436292493682	0.0013612404553532192	0.0009796607736988325	0.02011601849738523	9.883830776217469	0.0584156420408342
3.225957	1787824726413108224	0.001541197029009859	0.0010930174438781469	0.0011568109408139939	0.08122376624144403	9.874719704417947	0.002218518487711041
3.232659	1787824726422108160	0.00044192499286881994	-0.00015462664026961694	-0.00021898767635226184	0.0959703596719376	9.80508412912879	-0.07187688284593816
3.238271	1787824726425108224	0.001200362198403888	-0.0011377546776440942	0.0004753924990857617	-0.001203119598614577	9.87858831072722	-0.03799725724089731
3.242396	1787824726431108352	-0.0015667296897123543	0.0035927909010231205	0.0006730019882296271	0.08841764767573504	9.856141292979206	-0.08297010418819642
3.248390	1787824726437108224	-0.0005139874651084973	0.0013135564774767606	-0.0005434306039338587	0.10627586213904586	9.796734449886412	-0.03890211475691496
3.253074	1787824726440108288	-0.0016635950254904968	-0.0001465318881502421	0.0018160411106678156	0.09001195206692265	9.788830265897932	0.04620938863179325
3.257523	1787824726446108160	-0.0006371566820180749	0.003806331048104408	0.002266965641106964	0.03793566678204706	9.864839665380146	-0.03154290152781719
3.261390	1787824726449108224	-0.0008288446553419338	0.0008229630307996366	0.002364718995619069	0.08416303284915863	9.826258246848264	-0.07669929511690396
3.265218	1787824726452108032	0.0006953310621449892	0.0013676437578670358	-0.000702922326308629	0.11140163655465125	9.859623322950325	-0.011569946748116976
3.272211	1787824726461108224	0.0013746703221900283	0.0016199068166664627	0.0031738069665884906	0.1121532546168226	9.891395170925124	-0.05118383529211956
3.277242	1787824726464108288	-0.0023828384758463163	-0.0014717728510063905	-0.002269168097055888	0.06271071740093695	9.806209982910126	-0.052041957773232436
3.281629	1787824726470108160	-0.0006265579916026818	0.0018935709179710356	0.0029007667471675673	0.11932329442243665	9.810408604203655	0.01871628582538836
3.287131	1787824726476108288	-0.0006879851499426398	-0.001699405636613271	-0.0004660048446491983	0.0883411185238884	9.854379978125444	-0.01671660789089503
3.291783	1787824726479108096	-0.00018105324171165598	0.00040878843320474626	0.001560344626968434	0.08471736024670262	9.804533181319087	0.003029470799816192
3.296117	1787824726485108224	-0.00014484267826374167	-0.0006857294299455173	0.0010818568108915598	0.02691468954430227	9.950490605921628	-0.09078570630082111
3.305513	1787824726494108160	0.0004473750719362358	-0.002172610537777015	0.0009930638567387461	0.01433732422436252	9.854349117441004	0.005794424424623856
3.306869	1787824726494108160	-0.0016106426420549294	0.0004762792964777755	-0.0028819369451670448	0.02092123084634986	9.799652052709481	-0.009361848770435673
3.312254	1787824726500108288	0.0011859987499458408	-0.0018346772634881506	0.0018471431716259325	0.04018834605214415	9.851055479441873	0.014743757102288695
3.316569	1787824726506108160	0.0004796772863212036	0.00365158531501707	-0.0014634115180158236	0.02884411049215097	9.903775307351241	-0.08123313873081517
3.323513	1787824726512108032	-0.000664489754814362	0.001617282210873449	-0.0002521139174662595	0.029400220695601668	9.860288307482087	-0.05865094153844407
3.327370	1787824726515108096	0.0007381326524336273	-0.0010370410585634306	-0.0016369797444660134	-0.005901331116424109	9.82874006366668	-0.031909020205571244
3.331804	1787824726521108224	-2.1157724448195458e-05	0.002723286511236991	-0.0014775609921538224	0.04799574428426283	9.804918252957512	-0.018340498781207727
3.338454	1787824726527108096	0.00013872797828721442	-0.0011924668793241143	-0.0019289847973444833	0.06907100425647797	9.848806756828562	-0.05606044674712475
3.341481	1787824726530108160	0.00012800903079194815	-0.00155405066267456	0.0006113769781385886	0.06924924754623904	9.791668879924922	0.010973439053668987
3.346276	1787824726533108224	0.003835720931072933	-6.117702443334145e-05	-0.0016260275545661215	0.08378088018216541	9.814682054954599	-0.012773984387765565
3.353775	1787824726542108416	-0.004256160044297443	0.0008168552114383029	-0.0007709066618896861	0.01535581667008653	9.846391853726804	-0.03824778210196323
3.359329	1787824726548108032	0.0009850929422049034	0.000360755263548299	-0.0020233248896249947	0.04653108904979375	9.838636482855081	-0.08021509139668964
3.361577	1787824726551108096	0.0009443487377741172	0.0013448950146021904	0.0010621302677913916	0.08902832238357725	9.823613175809355	-0.07439812641985033
3.364425	1787824726551108096	-0.00011304734994315164	0.0023774776586022624	0.00023775883125843597	0.06339506263164424	9.88799490453507	-0.03268364176347449
3.372390	1787824726560108288	-0.00021215686685634134	-0.00020461164668183934	-0.0009351130296514731	0.05291137044082924	9.840110242887672	-0.008096564184416986
3.379936	1787824726569108224	0.0029707145884928002	-2.7414429445094874e-06	0.0004480426945834331	0.04379836801653873	9.858079143253844	-0.013047651989563484
3.382499	1787824726569108224	-0.002445045374632427	-0.0013553360330456278	0.0004082878119912046	0.021749172626165842	9.772110134507033	-0.08193438420157764
3.385642	1787824726575108352	0.0016462079258237586	0.0021897853408113545	-4.6965529409689646e-05	0.04321237381963515	9.811515966640998	-0.018391180260214635
3.393553	1787824726581107968	-0.001801906526538576	-0.0006036076810471807	0.0035695325604879207	0.0691898758030034	9.8136294882928	0.016715208529963846
3.397005	1787824726584108032	-0.001662149967319415	0.0005355768313106519	-5.475484493942292e-05	0.016564168236593093	9.881070371222162	-0.06276895472417557
3.403330	1787824726590108160	0.0009744702236391782	0.0001844859500205418	0.0042518206234153835	0.013071319543752364	9.854392539555734	-0.055679310243970916
3.409044	1787824726596108288	-0.0019930835391274706	-0.0017508470021717645	0.002467415397135521	0.04823038496131338	9.834436024434593	-0.1320447041703855
3.413402	1787824726602108160	-0.00010615474320996522	-0.0010463565982886725	-0.0005008287999813566	-0.02429356577019698	9.855274566816274	-0.017400757176987268
3.417810	1787824726605108224	-0.0003840246060235465	-0.0003634849496003429	0.0002485199974268268	0.042673833947435624	9.856143743541493	-0.009525110685900645
3.424288	1787824726611108352	0.00320888794161366	0.0012080722388042684	0.0013966635939973205	0.0752125613632163	9.83469348333955	-0.061879518836512375
3.428050	1787824726617108224	0.002469180285997321	-0.001322358741576568	-0.004014154871167575	0.010783626409240257	9.766747705735451	0.026034694209907734
3.429623	1787824726617108224	0.000724483584680054	0.002472175953455005	0.0028344942175211603	0.06564423702023828	9.890599338779149	-0.030720233053951267
3.439344	1787824726626108160	0.0034523572540009874	0.0021400520660041296	-0.0002442272583091037	0.009650172414870196	9.86544573320785	0.0008260121244057332
3.443956	1787824726632108288	-0.00021368381994495015	0.0017275013790995883	0.000425680588646984	0.049894809261146505	9.894364585263778	-0.04343702732532113
3.448646	1787824726638108160	0.0009319428714065143	0.0020198375784007483	-0.0001954014720879535	0.045907430177229015	9.815914176124563	-0.0020076903479380355
3.453446	1787824726641108224	0.0012934548549360747	-0.0009556930408061886	0.0004841042515196848	0.08357474613411127	9.850100504057668	-0.012003288848106714
3.457845	1787824726647108352	-0.0008403560098281289	0.0004308831052635137	-0.00104582070072501	0.03980248742784127	9.903874733894337	-0.042755243477076973
3.460157	1787824726647108352	-0.0026119658204050776	-0.0008202367143120913	0.0005225527586376845	0.01036955463009525	9.76494411760334	-0.040070442613571816
3.469311	1787824726656108032	-0.0010937946819138396	-0.0009539183360419638	-0.00015556513089621675	0.07507882974361349	9.893436781319757	-0.058179842398056986
3.472688	1787824726662108160	0.003554985712981912	0.000922609472978422	0.0017087261715589348	0.10813119312473096	9.798403186374209	-0.09083683672088326
3.478628	1787824726668108288	-0.00043748010558306965	-0.0016222339178581817	0.00023478126229266658	0.06395972999188212	9.814996799355697	-0.03390354026928484
3.484392	1787824726671108352	-0.0003053986872747554	0.0018403555474008043	-0.0011958740775272075	0.011662109055739021	9.799159915468689	-0.042591430097170424
3.491009	1787824726680108288	-0.001262227143497831	0.0012423903143546273	-0.0009995463405775987	0.09731992524539601	9.883542362316982	0.006964616376949215
3.493762	1787824726683108096	0.001862263805525015	0.0009985044936594541	-0.00032010197455821683	0.007557413456467453	9.796324164145256	-0.05477137476921953
3.498577	1787824726686108160	0.0009363454610261898	-0.0013325608233492612	-5.582692436427616e-05	0.1119584771567406	9.835156417936348	-0.06762699903639283
3.501654	1787824726689108224	-0.001995171255970464	-0.00026369818411558685	0.00045698239231181214	-0.023007838588250625	9.82476879394301	-0.013875734592729802
3.506915	1787824726695108096	1.1197579649677074e-05	0.001191489880293386	-0.0011155799208465544	0.0433101775154205	9.851838118714674	-0.033224106107552734
3.510870	1787824726698108160	0.0016192964350017372	0.003242672199866485	0.001277477254258299	0.03320792709538213	9.861147980379524	-0.1275042960454622
3.517761	1787824726707108352	0.0012476203772901508	-0.000887317262320448	-0.0014332349642962496	0.08314633971785347	9.82087334658426	-0.017854534780656343
3.520497	1787824726707108352	-0.0006405803393595173	0.003990545280493356	-0.0002387002212198122	0.1414828734547879	9.855750366215858	-0.019141597548757144
3.532025	1787824726719108096	-0.0026294317483940414	-0.002331261675069769	-0.002009363925061319	0.07350744729670189	9.797790570838695	-0.04183585720970576
3.532525	1787824726722108160	0.002160353051327011	-0.0033263257034839354	0.0031919520012831624	0.037350243732362655	9.778738082390637	-0.028555582933966765
3.540032	1787824726728108288	0.0005929748419049311	-0.0007900273102631116	-0.001029951154843885	0.023937148016185298	9.808332732622427	-0.004811760509861467
3.543482	1787824726731108096	-0.0012184028246538965	-0.002187057005771002	0.002390716396921972	0.05929075858481343	9.924355216298602	-0.018778309221863493
3.547754	1787824726737108224	-0.0029871555361952805	0.0009797135174695077	-0.0015019077903189325	0.00010624549139994638	9.81335793859727	-0.007289541614569347
3.552545	1787824726740108288	-8.671741210057765e-05	-0.0019910737289145124	-0.0011367606742356958	0.08373693602215179	9.807439792181029	0.06157252422889767
3.556568	1787824726746108416	-0.002225005231360762	-0.0019167574358556745	0.001009402541813373	-0.023430799793509482	9.832190822864314	-0.07437715100615272
3.561179	1787824726749108224	0.0024151123875618867	-0.002993361781957604	0.0012497795003190832	-0.025397764462567696	9.765578420371519	-0.004989424202169395
3.565048	1787824726752108032	-0.0008468701322880862	-0.0010324248216596551	-0.0013887304131260225	0.026242136599054805	9.898783640430898	-0.04318639463844519
3.570491	1787824726758108160	0.002377219982637029	-0.00021603092220826364	0.0015561540394940729	-0.008137204528234347	9.818214744998897	0.019833809426884966
3.576749	1787824726764108288	-0.005483750203187014	-0.0036369209466175978	-0.00047037570405366084	0.10787445623944035	9.832036872769185	-0.04672071812144865
3.582645	1787824726770108160	0.00016582557196571115	0.0014573414598418202	-0.0005896502497143368	-0.0016793703026609652	9.730614785199222	-0.05742068006680785
3.589445	1787824726776108288	0.0019121874774193132	-0.00019719257468316578	-0.0020475610273822005	0.060759877101777264	9.78181441714765	-0.02001639880850436
3.592926	1787824726782108416	-0.004091012048580487	-0.0012777341493798893	-0.000618669929136674	0.045763243154859974	9.804755260565296	0.0033311567472998904
3.596766	1787824726785107968	-0.001556592673666322	-0.00043039820198304186	-0.0006602718364000437	-0.02144193845542023	9.841501507909783	-0.08178063283520712
3.601864	1787824726791108096	0.001848881859127531	0.0007451252741014176	0.0029110898530664443	0.039130673120213365	9.887203705257347	-0.02380299018924987
3.607084	1787824726794108160	-0.0021623093008392097	-0.00013270609220716583	-0.0008963578413189064	-0.009346480443716887	9.857742328770229	-0.025098937478693538
3.611496	1787824726800108288	0.001048576185605345	0.00012863745407912537	-0.0036053019935437737	0.14214168762748677	9.857787918514083	-0.06332662241100304
3.619708	1787824726809108224	0.0007916463167390135	-0.0013129668670197395	0.00054393826132112	0.04751987043628687	9.826802601474807	-0.08599269661451436
3.624287	1787824726812108288	0.00112222800647718	0.0014620652525086575	0.0021061839886775797	-0.01856351025820071	9.910010296122552	-0.04307890040536847
3.627113	1787824726815108352	-0.004072481916131347	-0.0013713231411521007	0.0031941703733124006	0.08509438395179245	9.927462754317427	-0.08451679026965489
3.635295	1787824726824108032	-0.00048575945962996397	0.0029154987732453105	0.0007824122537316168	0.06107594246340872	9.824388227549695	0.0024439759720492407
3.641229	1787824726830108160	-0.002708762563688618	-0.0008734783791695766	0.0031456560929314084	0.01807229417157892	9.806578069527573	-0.010386147085777092
3.643092	1787824726830108160	0.0008742459061796535	-0.0003566199908281868	-0.0005296254555750258	0.02426785223464066	9.854470704478732	0.0025652660351625223
3.647613	1787824726836108288	0.0007403686057244288	0.00011791032305409906	0.0012634428005408387	0.10175451684076346	9.801800821329746	0.02316812720107648
3.651375	1787824726839108352	0.0006136506734987818	-0.0031203171791844933	0.0018083090064361645	0.059091374872494926	9.750201276559553	0.005579750319931132
3.655588	1787824726845108224	0.00042336977762104914	0.001376150475968354	0.002877440068928599	0.0747738401899869	9.877681895461285	-0.05322593703718272
3.662876	1787824726851108352	0.001808702944324005	0.0007549373090313878	-0.0007342235162880295	-0.04236797340605879	9.806085233428185	0.01647840587824103
3.667549	1787824726857108224	0.0005276702297948957	0.0020710572313281995	0.0012432133994960495	0.09479706007299007	9.806457449296573	-0.04345188389944998
3.671356	1787824726860108032	0.004973524666667641	-0.003083794363015518	-0.0007302834471346201	0.012399054836812667	9.863992657046918	-0.0808965166764754
3.675754	1787824726863108096	-0.002245934345984193	-0.0018406347918746074	-0.001612649333870507	0.07862386626715527	9.834436632599362	-0.006868860871547276
3.680361	1787824726869108224	-0.001832262849391539	0.0009859630406257366	0.0009782625116950675	0.0018097394638928316	9.905867386314759	-0.041487328641438004
3.689791	1787824726878108160	-0.000649649813650637	9.771996130510447e-05	0.0015783901544496354	0.05171286902730011	9.855756980155832	-0.035794975702903804
3.692295	1787824726881108224	0.002432589630375537	0.001485314974973525	-0.0030231035183359476	0.03619868727836556	9.889744516309356	-0.10690474261614218
3.700654	1787824726890108160	0.002573596464519915	0.0016888683117841149	0.0007356438713466422	0.021412108429582077	9.821527544395758	0.04520921069640592
3.703556	1787824726893108224	-7.45497823405848e-05	-0.0006458815389417675	-0.00016637168934608457	0.04621100801418558	9.803149513857157	-0.09580734343013582
3.708743	1787824726896108032	0.0005533937574459649	-0.003418522881401305	-0.00022513842006280905	0.015343049755910013	9.824711307903184	-0.08297479383116535
3.712864	1787824726902108160	-0.0016069830351377026	-0.0001591108376101727	0.0015482413613680229	0.08282283639763885	9.877192812596196	-0.08428478428442818
3.715584	1787824726905108224	0.00027727137166905116	0.0002513312396531513	0.001229311125527662	0.07919796532445143	9.874931104918888	0.01382579444706248
3.720740	1787824726908108288	0.00010898258047596742	-0.0012134545778642503	0.0003546946001523159	0.05995356857442769	9.875588136251826	-0.037702902972776564
3.725870	1787824726914108160	-0.002609675254628539	-0.0006900367640247564	0.0009332090716803737	0.06327291238654151	9.806373667665504	-0.038182812511264284
3.734923	1787824726923108096	-0.0006973597680044445	0.0014970739485201038	0.0007552386441077876	0.0193584904466658	9.810250741207488	0.02717025245237386
3.738029	1787824726926108160	-0.0011627369449241482	-0.001644281438997026	0.001074641928617162	0.011300867330720298	9.867847342006513	-0.027055094985187336
3.741168	1787824726929108224	0.00022715637637471547	-0.001480867125269879	0.0032972393088914723	0.09698328345570999	9.801715599602277	-0.03764940620091554
3.745267	1787824726932108288	-0.000552133395281608	-0.0015187775910791232	0.0013811236171836468	0.044091601869248806	9.826958709155269	-0.005558537261391324
3.751895	1787824726941108224	0.0019839242494529286	0.002452167508139377	0.0009727397631968672	0.0652530008057582	9.850741532947604	-0.02562465018271256
3.758407	1787824726947108352	0.0008194866705222464	0.0008874002733134903	0.0008811179533825764	0.06098551731488313	9.913775637766527	-0.002503095055457743
3.762388	1787824726950108416	0.00013234465824467888	0.001635410369572352	0.0006560262036753384	0.06031960577958277	9.797871257456844	0.045368575654902266
3.767038	1787824726956108032	0.00018305095517916507	-0.0007062601846388893	0.0008206782478077395	0.032407604944678065	9.864985401520322	-0.04429124951826376
3.771541	1787824726959108096	0.0004741892810320525	-0.005097818612647699	0.00050532030247965	-0.031232885822971596	9.820492537962455	0.04605404649634143
3.778629	1787824726968108288	0.002504580475491021	-0.00046692820850793	0.001009608256293775	0.015751535499202912	9.867555954147656	0.013315170063065422
3.782587	1787824726971108096	-0.0011889639757186026	-0.0021984078705073297	-0.0007226510581343112	0.05222799896540663	9.889881068936306	-0.05910678444320512
3.787434	1787824726974108160	-0.00044797700157331343	-0.0002226440712914117	-0.0013128311269445447	0.01622523845614826	9.872547504932898	-0.0723156532152808
3.790341	1787824726977108224	-8.672099355455748e-06	0.0003466551915388296	0.00042285079637065286	0.13014246503959176	9.869689296450742	-0.023141684180092607
3.798044	1787824726986108416	-0.000367407081203704	-0.0028124725262352497	0.0022309244679416303	0.08076064208923847	9.775846830593338	-0.05808734714405635
3.799953	1787824726989108224	-0.0022761854485386177	0.0009310251884216026	0.00040601894260501565	0.06974161767385859	9.794932720850824	0.012767141587635526
3.809016	1787824726998108160	-0.0020926780751758297	-0.0007398270643777026	-0.00013090125093649562	-0.03239586361141669	9.802658941275523	0.014125167436748
3.813100	1787824727001108224	-0.002912049344999423	-0.002681952416388128	0.0005621285104032681	0.047718727673164124	9.879621543785184	-0.056796297836363585
3.818864	1787824727007108096	-0.0029837633086439498	3.32587563454366e-05	0.0022566237198470987	0.10977120023233278	9.803467868385589	-0.09755748031654378
3.821776	1787824727010108160	0.001666119631568379	0.0010441940597784962	0.002162009533824505	0.04974492075901195	9.853713603084435	0.008812702088388975
3.829188	1787824727016108288	0.0028238450706563334	-0.0011337386087406484	-0.0013921487703125088	0.010827571419805664	9.819988127828566	-0.005840135398707601
3.831458	1787824727019108352	-0.00022616616758896628	0.0001633910653834802	0.0003028755996866663	0.11222403023044573	9.80995652765553	-0.05475151176944455
3.838691	1787824727028108032	0.001032394467783678	-0.00033096769466686325	-0.00027824635248336173	0.048487398903701635	9.870538966645153	-0.05520878169943315
3.844015	1787824727031108096	-0.0038296581177871577	0.001271257372981092	-0.00027297518239420863	-0.028802806796859537	9.84964932786655	-0.10065320951622342
3.847170	1787824727034108160	-0.0017581565157995913	-0.00046617856996519855	-0.0010624292297441314	-0.030291904686307963	9.88890309720484	-0.08934055451605145
3.853975	1787824727043108352	-0.0008109780796356635	-0.00337000437175143	-0.002369219931658768	0.06439282214343431	9.769428957524019	-0.01031479430236272
3.857156	1787824727046108160	0.002462511360515763	0.0011459491245240925	0.0008317852206999759	0.09868169620925994	9.845874528395088	-0.004595384935291252
