# time_s	timestamp_ns	wx	wy	wz	ax	ay	az
0.002500	1787824723191108352	4.894495756984541e-05	5.388458608624323e-05	-4.2821289241188315e-06	0.0	9.808283871924658	0.0
0.007500	1787824723194108160	4.894495756984541e-05	5.388458608624323e-05	-4.2821289241188315e-06	0.0	9.808283871924658	0.0
0.012500	1787824723200108288	4.894495756984541e-05	5.388458608624323e-05	-4.2821289241188315e-06	0.0	9.808283871924658	0.0
0.017500	1787824723206108160	4.894495756984541e-05	5.388458608624323e-05	-4.2821289241188315e-06	0.0	9.808283871924658	0.0
0.022500	1787824723212108032	4.894495756984541e-05	5.388458608624323e-05	-4.2821289241188315e-06	0.0	9.808283871924658	0.0
0.027500	1787824723215108096	4.894495756984541e-05	5.388458608624323e-05	-4.2821289241188315e-06	0.0	9.808283871924658	0.0
0.032500	1787824723221108224	4.894495756984541e-05	5.388458608624323e-05	-4.2821289241188315e-06	0.0	9.808283871924658	0.0
0.037500	1787824723227108352	4.894495756984541e-05	5.388458608624323e-05	-4.2821289241188315e-06	0.0	9.808283871924658	0.0
0.042500	1787824723230108160	4.894495756984541e-05	5.388458608624323e-05	-4.2821289241188315e-06	0.0	9.808283871924658	0.0
0.047500	1787824723236108288	4.894495756984541e-05	5.388458608624323e-05	-4.2821289241188315e-06	0.0	9.808283871924658	0.0
0.052500	1787824723242108160	4.894495756984541e-05	5.388458608624323e-05	-4.2821289241188315e-06	0.0	9.808283871924658	0.0
0.057500	1787824723245108224	4.894495756984541e-05	5.388458608624323e-05	-4.2821289241188315e-06	0.0	9.808283871924658	0.0
0.062500	1787824723251108096	4.894495756984541e-05	5.388458608624323e-05	-4.2821289241188315e-06	0.0	9.808283871924658	0.0
0.067500	1787824723254108160	4.894495756984541e-05	5.388458608624323e-05	-4.2821289241188315e-06	0.0	9.808283871924658	0.0
0.072500	1787824723260108288	4.894495756984541e-05	5.388458608624323e-05	-4.2821289241188315e-06	0.0	9.808283871924658	0.0
0.077500	1787824723266108160	4.894495756984541e-05	5.388458608624323e-05	-4.2821289241188315e-06	0.0	9.808283871924658	0.0
0.082500	1787824723272108288	4.894495756984541e-05	5.388458608624323e-05	-4.2821289241188315e-06	0.0	9.808283871924658	0.0
0.087500	1787824723275108096	4.894495756984541e-05	5.388458608624323e-05	-4.2821289241188315e-06	0.0	9.808283871924658	0.0
0.092500	1787824723281108224	4.894495756984541e-05	5.388458608624323e-05	-4.2821289241188315e-06	0.0	9.808283871924658	0.0
0.097500	1787824723284108288	4.894495756984541e-05	5.388458608624323e-05	-4.2821289241188315e-06	0.0	9.808283871924658	0.0
0.102500	1787824723290108160	4.894495756984541e-05	5.388458608624323e-05	-4.2821289241188315e-06	0.0	9.808283871924658	0.0
0.107500	1787824723296108288	4.894495756984541e-05	5.388458608624323e-05	-4.2821289241188315e-06	0.0	9.808283871924658	0.0
0.112500	1787824723302108160	4.894495756984541e-05	5.388458608624323e-05	-4.2821289241188315e-06	0.0	9.808283871924658	0.0
0.117500	1787824723305108224	4.894495756984541e-05	5.388458608624323e-05	-4.2821289241188315e-06	0.0	9.808283871924658	0.0
0.122500	1787824723311108096	4.894495756984541e-05	5.388458608624323e-05	-4.2821289241188315e-06	0.0	9.808283871924658	0.0
0.127500	1787824723314108160	4.894495756984541e-05	5.388458608624323e-05	-4.2821289241188315e-06	0.0	9.808283871924658	0.0
0.132500	1787824723320108288	4.894495756984541e-05	5.388458608624323e-05	-4.2821289241188315e-06	0.0	9.808283871924658	0.0
0.137500	1787824723326108160	4.894495756984541e-05	5.388458608624323e-05	-4.2821289241188315e-06	0.0	9.808283871924658	0.0
0.142500	1787824723332108288	4.894495756984541e-05	5.388458608624323e-05	-4.2821289241188315e-06	0.0	9.808283871924658	0.0
0.147500	1787824723335108352	4.894495756984541e-05	5.388458608624323e-05	-4.2821289241188315e-06	0.0	9.808283871924658	0.0
0.152500	1787824723341108224	4.894495756984541e-05	5.388458608624323e-05	-4.2821289241188315e-06	0.0	9.808283871924658	0.0
0.157500	1787824723344108032	4.894495756984541e-05	5.388458608624323e-05	-4.2821289241188315e-06	0.0	9.808283871924658	0.0
0.162500	1787824723350108160	4.894495756984541e-05	5.388458608624323e-05	-4.2821289241188315e-06	0.0	9.808283871924658	0.0
0.167500	1787824723356108288	4.894495756984541e-05	5.388458608624323e-05	-4.2821289241188315e-06	0.0	9.808283871924658	0.0
0.172500	1787824723362108160	4.894495756984541e-05	5.388458608624323e-05	-4.2821289241188315e-06	0.0	9.808283871924658	0.0
0.177500	1787824723365108224	4.894495756984541e-05	5.388458608624323e-05	-4.2821289241188315e-06	0.0	9.808283871924658	0.0
0.182500	1787824723371108352	4.894495756984541e-05	5.388458608624323e-05	-4.2821289241188315e-06	0.0	9.808283871924658	0.0
0.187500	1787824723374108416	4.894495756984541e-05	5.388458608624323e-05	-4.2821289241188315e-06	0.0	9.808283871924658	0.0
0.192500	1787824723380108032	4.894495756984541e-05	5.388458608624323e-05	-4.2821289241188315e-06	0.0	9.808283871924658	0.0
0.197500	1787824723386108160	4.894495756984541e-05	5.388458608624323e-05	-4.2821289241188315e-06	0.0	9.808283871924658	0.0
0.202500	1787824723392108288	4.894495756984541e-05	5.388458608624323e-05	-4.2821289241188315e-06	0.0	9.808283871924658	0.0
0.207500	1787824723395108096	4.894495756984541e-05	5.388458608624323e-05	-4.2821289241188315e-06	0.0	9.808283871924658	0.0
0.212500	1787824723401108224	4.894495756984541e-05	5.388458608624323e-05	-4.2821289241188315e-06	0.0	9.808283871924658	0.0
0.217500	1787824723404108288	4.894495756984541e-05	5.388458608624323e-05	-4.2821289241188315e-06	0.0	9.808283871924658	0.0
0.222500	1787824723410108160	4.894495756984541e-05	5.388458608624323e-05	-4.2821289241188315e-06	0.0	9.808283871924658	0.0
0.227500	1787824723416108032	4.894495756984541e-05	5.388458608624323e-05	-4.2821289241188315e-06	0.0	9.808283871924658	0.0
0.232500	1787824723422108160	4.894495756984541e-05	5.388458608624323e-05	-4.2821289241188315e-06	0.0	9.808283871924658	0.0
0.237500	1787824723425108224	4.894495756984541e-05	5.388458608624323e-05	-4.2821289241188315e-06	0.0	9.808283871924658	0.0
0.242500	1787824723431108352	4.894495756984541e-05	5.388458608624323e-05	-4.2821289241188315e-06	0.0	9.808283871924658	0.0
0.247500	1787824723434108160	4.894495756984541e-05	5.388458608624323e-05	-4.2821289241188315e-06	0.0	9.808283871924658	0.0
0.252500	1787824723440108288	4.894495756984541e-05	5.388458608624323e-05	-4.2821289241188315e-06	0.0	9.808283871924658	0.0
0.257500	1787824723446108160	4.894495756984541e-05	5.388458608624323e-05	-4.2821289241188315e-06	0.0	9.808283871924658	0.0
0.262500	1787824723452108032	4.894495756984541e-05	5.388458608624323e-05	-4.2821289241188315e-06	0.0	9.808283871924658	0.0
0.267500	1787824723455108096	4.894495756984541e-05	5.388458608624323e-05	-4.2821289241188315e-06	0.0	9.808283871924658	0.0
0.272500	1787824723461108224	4.894495756984541e-05	5.388458608624323e-05	-4.2821289241188315e-06	0.0	9.808283871924658	0.0
0.277500	1787824723464108288	4.894495756984541e-05	5.388458608624323e-05	-4.2821289241188315e-06	0.0	9.808283871924658	0.0
0.282500	1787824723470108160	4.894495756984541e-05	5.388458608624323e-05	-4.2821289241188315e-06	0.0	9.808283871924658	0.0
0.287500	1787824723476108288	4.894495756984541e-05	5.388458608624323e-05	-4.2821289241188315e-06	0.0	9.808283871924658	0.0
0.292500	1787824723479108096	4.894495756984541e-05	5.388458608624323e-05	-4.2821289241188315e-06	0.0	9.808283871924658	0.0
0.297500	1787824723485108224	4.894495756984541e-05	5.388458608624323e-05	-4.2821289241188315e-06	0.0	9.808283871924658	0.0
0.302500	1787824723491108096	4.894495756984541e-05	5.388458608624323e-05	-4.2821289241188315e-06	0.0	9.808283871924658	0.0
0.307500	1787824723494108160	4.894495756984541e-05	5.388458608624323e-05	-4.2821289241188315e-06	0.0	9.808283871924658	0.0
0.312500	1787824723500108288	4.894495756984541e-05	5.388458608624323e-05	-4.2821289241188315e-06	0.0	9.808283871924658	0.0
0.317500	1787824723506108160	4.894495756984541e-05	5.388458608624323e-05	-4.2821289241188315e-06	0.0	9.808283871924658	0.0
0.322500	1787824723512108032	4.894495756984541e-05	5.388458608624323e-05	-4.2821289241188315e-06	0.0	9.808283871924658	0.0
0.327500	1787824723515108096	4.894495756984541e-05	5.388458608624323e-05	-4.2821289241188315e-06	0.0	9.808283871924658	0.0
0.332500	1787824723521108224	4.894495756984541e-05	5.388458608624323e-05	-4.2821289241188315e-06	0.0	9.808283871924658	0.0
0.337500	1787824723524108288	4.894495756984541e-05	5.388458608624323e-05	-4.2821289241188315e-06	0.0	9.808283871924658	0.0
0.342500	1787824723530108160	4.894495756984541e-05	5.388458608624323e-05	-4.2821289241188315e-06	0.0	9.808283871924658	0.0
0.347500	1787824723536108288	4.894495756984541e-05	5.388458608624323e-05	-4.2821289241188315e-06	0.0	9.808283871924658	0.0
0.352500	1787824723542108416	4.894495756984541e-05	5.388458608624323e-05	-4.2821289241188315e-06	0.0	9.808283871924658	0.0
0.357500	1787824723545108224	4.894495756984541e-05	5.388458608624323e-05	-4.2821289241188315e-06	0.0	9.808283871924658	0.0
0.362500	1787824723551108096	4.894495756984541e-05	5.388458608624323e-05	-4.2821289241188315e-06	0.0	9.808283871924658	0.0
0.367500	1787824723554108160	4.894495756984541e-05	5.388458608624323e-05	-4.2821289241188315e-06	0.0	9.808283871924658	0.0
0.372500	1787824723560108288	4.894495756984541e-05	5.388458608624323e-05	-4.2821289241188315e-06	0.0	9.808283871924658	0.0
0.377500	1787824723566108160	4.894495756984541e-05	5.388458608624323e-05	-4.2821289241188315e-06	0.0	9.808283871924658	0.0
0.382500	1787824723572108288	4.894495756984541e-05	5.388458608624323e-05	-4.2821289241188315e-06	0.0	9.808283871924658	0.0
0.387500	1787824723575108352	4.894495756984541e-05	5.388458608624323e-05	-4.2821289241188315e-06	0.0	9.808283871924658	0.0
0.392500	1787824723581107968	4.894495756984541e-05	5.388458608624323e-05	-4.2821289241188315e-06	0.0	9.808283871924658	0.0
0.397500	1787824723584108032	4.894495756984541e-05	5.388458608624323e-05	-4.2821289241188315e-06	0.0	9.808283871924658	0.0
0.402500	1787824723590108160	4.894495756984541e-05	5.388458608624323e-05	-4.2821289241188315e-06	0.0	9.808283871924658	0.0
0.407500	1787824723596108288	4.894495756984541e-05	5.388458608624323e-05	-4.2821289241188315e-06	0.0	9.808283871924658	0.0
0.412500	1787824723602108160	4.894495756984541e-05	5.388458608624323e-05	-4.2821289241188315e-06	0.0	9.808283871924658	0.0
0.417500	1787824723605108224	4.894495756984541e-05	5.388458608624323e-05	-4.2821289241188315e-06	0.0	9.808283871924658	0.0
0.422500	1787824723611108352	4.894495756984541e-05	5.388458608624323e-05	-4.2821289241188315e-06	0.0	9.808283871924658	0.0
0.427500	1787824723614108416	4.894495756984541e-05	5.388458608624323e-05	-4.2821289241188315e-06	0.0	9.808283871924658	0.0
0.432500	1787824723620108032	4.894495756984541e-05	5.388458608624323e-05	-4.2821289241188315e-06	0.0	9.808283871924658	0.0
0.437500	1787824723626108160	4.894495756984541e-05	5.388458608624323e-05	-4.2821289241188315e-06	0.0	9.808283871924658	0.0
0.442500	1787824723632108288	4.894495756984541e-05	5.388458608624323e-05	-4.2821289241188315e-06	0.0	9.808283871924658	0.0
0.447500	1787824723635108352	4.894495756984541e-05	5.388458608624323e-05	-4.2821289241188315e-06	0.0	9.808283871924658	0.0
0.452500	1787824723641108224	4.894495756984541e-05	5.388458608624323e-05	-4.2821289241188315e-06	0.0	9.808283871924658	0.0
0.457500	1787824723644108288	4.894495756984541e-05	5.388458608624323e-05	-4.2821289241188315e-06	0.0	9.808283871924658	0.0
0.462500	1787824723650108160	4.894495756984541e-05	5.388458608624323e-05	-4.2821289241188315e-06	0.0	9.808283871924658	0.0
0.467500	1787824723656108032	4.894495756984541e-05	5.388458608624323e-05	-4.2821289241188315e-06	0.0	9.808283871924658	0.0
0.472500	1787824723662108160	4.894495756984541e-05	5.388458608624323e-05	-4.2821289241188315e-06	0.0	9.808283871924658	0.0
0.477500	1787824723665108224	4.894495756984541e-05	5.388458608624323e-05	-4.2821289241188315e-06	0.0	9.808283871924658	0.0
0.482500	1787824723671108352	4.894495756984541e-05	5.388458608624323e-05	-4.2821289241188315e-06	0.0	9.808283871924658	0.0
0.487500	1787824723674108160	4.894495756984541e-05	5.388458608624323e-05	-4.2821289241188315e-06	0.0	9.808283871924658	0.0
0.492500	1787824723680108288	4.894495756984541e-05	5.388458608624323e-05	-4.2821289241188315e-06	0.0	9.808283871924658	0.0
0.497500	1787824723686108160	4.894495756984541e-05	5.388458608624323e-05	-4.2821289241188315e-06	0.0	9.808283871924658	0.0
0.502500	1787824723689108224	4.894495756984541e-05	5.388458608624323e-05	-4.2821289241188315e-06	0.0	9.808283871924658	0.0
0.507500	1787824723695108096	4.894495756984541e-05	5.388458608624323e-05	-4.2821289241188315e-06	0.0	9.808283871924658	0.0
0.512500	1787824723701108224	4.894495756984541e-05	5.388458608624323e-05	-4.2821289241188315e-06	0.0	9.808283871924658	0.0
0.517500	1787824723704108288	4.894495756984541e-05	5.388458608624323e-05	-4.2821289241188315e-06	0.0	9.808283871924658	0.0
0.522500	1787824723710108160	4.894495756984541e-05	5.388458608624323e-05	-4.2821289241188315e-06	0.0	9.808283871924658	0.0
0.527500	1787824723716108288	4.894495756984541e-05	5.388458608624323e-05	-4.2821289241188315e-06	0.0	9.808283871924658	0.0
0.532500	1787824723722108160	4.894495756984541e-05	5.388458608624323e-05	-4.2821289241188315e-06	0.0	9.808283871924658	0.0
0.537500	1787824723725108224	4.894495756984541e-05	5.388458608624323e-05	-4.2821289241188315e-06	0.0	9.808283871924658	0.0
0.542500	1787824723731108096	4.894495756984541e-05	5.388458608624323e-05	-4.2821289241188315e-06	0.0	9.808283871924658	0.0
0.547500	1787824723734108160	4.894495756984541e-05	5.388458608624323e-05	-4.2821289241188315e-06	0.0	9.808283871924658	0.0
0.552500	1787824723740108288	4.894495756984541e-05	5.388458608624323e-05	-4.2821289241188315e-06	0.0	9.808283871924658	0.0
0.557500	1787824723746108416	4.894495756984541e-05	5.388458608624323e-05	-4.2821289241188315e-06	0.0	9.808283871924658	0.0
0.562500	1787824723752108032	4.894495756984541e-05	5.388458608624323e-05	-4.2821289241188315e-06	0.0	9.808283871924658	0.0
0.567500	1787824723755108096	4.894495756984541e-05	5.388458608624323e-05	-4.2821289241188315e-06	0.0	9.808283871924658	0.0
0.572500	1787824723761108224	4.894495756984541e-05	5.388458608624323e-05	-4.2821289241188315e-06	0.0	9.808283871924658	0.0
0.577500	1787824723764108288	4.894495756984541e-05	5.388458608624323e-05	-4.2821289241188315e-06	0.0	9.808283871924658	0.0
0.582500	1787824723770108160	4.894495756984541e-05	5.388458608624323e-05	-4.2821289241188315e-06	0.0	9.808283871924658	0.0
0.587500	1787824723776108288	4.894495756984541e-05	5.388458608624323e-05	-4.2821289241188315e-06	0.0	9.808283871924658	0.0
0.592500	1787824723779108352	4.894495756984541e-05	5.388458608624323e-05	-4.2821289241188315e-06	0.0	9.808283871924658	0.0
0.597500	1787824723785107968	4.894495756984541e-05	5.388458608624323e-05	-4.2821289241188315e-06	0.0	9.808283871924658	0.0
0.602500	1787824723791108096	4.894495756984541e-05	5.388458608624323e-05	-4.2821289241188315e-06	0.0	9.808283871924658	0.0
0.607500	1787824723794108160	4.894495756984541e-05	5.388458608624323e-05	-4.2821289241188315e-06	0.0	9.808283871924658	0.0
0.612500	1787824723800108288	4.894495756984541e-05	5.388458608624323e-05	-4.2821289241188315e-06	0.0	9.808283871924658	0.0
0.617500	1787824723806108160	4.894495756984541e-05	5.388458608624323e-05	-4.2821289241188315e-06	0.0	9.808283871924658	0.0
0.622500	1787824723809108224	4.894495756984541e-05	5.388458608624323e-05	-4.2821289241188315e-06	0.0	9.808283871924658	0.0
0.627500	1787824723815108352	4.894495756984541e-05	5.388458608624323e-05	-4.2821289241188315e-06	0.0	9.808283871924658	0.0
0.632500	1787824723821108224	4.894495756984541e-05	5.388458608624323e-05	-4.2821289241188315e-06	0.0	9.808283871924658	0.0
0.637500	1787824723824108032	4.894495756984541e-05	5.388458608624323e-05	-4.2821289241188315e-06	0.0	9.808283871924658	0.0
0.642500	1787824723830108160	4.894495756984541e-05	5.388458608624323e-05	-4.2821289241188315e-06	0.0	9.808283871924658	0.0
0.647500	1787824723836108288	4.894495756984541e-05	5.388458608624323e-05	-4.2821289241188315e-06	0.0	9.808283871924658	0.0
0.652500	1787824723839108352	4.894495756984541e-05	5.388458608624323e-05	-4.2821289241188315e-06	0.0	9.808283871924658	0.0
0.657500	1787824723845108224	4.894495756984541e-05	5.388458608624323e-05	-4.2821289241188315e-06	0.0	9.808283871924658	0.0
0.662500	1787824723851108352	4.894495756984541e-05	5.388458608624323e-05	-4.2821289241188315e-06	0.0	9.808283871924658	0.0
0.667500	1787824723854108160	4.894495756984541e-05	5.388458608624323e-05	-4.2821289241188315e-06	0.0	9.808283871924658	0.0
0.672500	1787824723860108032	4.894495756984541e-05	5.388458608624323e-05	-4.2821289241188315e-06	0.0	9.808283871924658	0.0
0.677500	1787824723866108160	4.894495756984541e-05	5.388458608624323e-05	-4.2821289241188315e-06	0.0	9.808283871924658	0.0
0.682500	1787824723872108288	4.894495756984541e-05	5.388458608624323e-05	-4.2821289241188315e-06	0.0	9.808283871924658	0.0
0.687500	1787824723875108352	4.894495756984541e-05	5.388458608624323e-05	-4.2821289241188315e-06	0.0	9.808283871924658	0.0
0.692500	1787824723881108224	4.894495756984541e-05	5.388458608624323e-05	-4.2821289241188315e-06	0.0	9.808283871924658	0.0
0.697500	1787824723884108288	4.894495756984541e-05	5.388458608624323e-05	-4.2821289241188315e-06	0.0	9.808283871924658	0.0
0.702500	1787824723890108160	4.894495756984541e-05	5.388458608624323e-05	-4.2821289241188315e-06	0.0	9.808283871924658	0.0
0.707500	1787824723896108032	4.894495756984541e-05	5.388458608624323e-05	-4.2821289241188315e-06	0.0	9.808283871924658	0.0
0.712500	1787824723899108096	4.894495756984541e-05	5.388458608624323e-05	-4.2821289241188315e-06	0.0	9.808283871924658	0.0
0.717500	1787824723905108224	4.894495756984541e-05	5.388458608624323e-05	-4.2821289241188315e-06	0.0	9.808283871924658	0.0
0.722500	1787824723911108352	4.894495756984541e-05	5.388458608624323e-05	-4.2821289241188315e-06	0.0	9.808283871924658	0.0
0.727500	1787824723914108160	4.894495756984541e-05	5.388458608624323e-05	-4.2821289241188315e-06	0.0	9.808283871924658	0.0
0.732500	1787824723920108288	4.894495756984541e-05	5.388458608624323e-05	-4.2821289241188315e-06	0.0	9.808283871924658	0.0
0.737500	1787824723926108160	4.894495756984541e-05	5.388458608624323e-05	-4.2821289241188315e-06	0.0	9.808283871924658	0.0
0.742500	1787824723929108224	4.894495756984541e-05	5.388458608624323e-05	-4.2821289241188315e-06	0.0	9.808283871924658	0.0
0.747500	1787824723935108096	4.894495756984541e-05	5.388458608624323e-05	-4.2821289241188315e-06	0.0	9.808283871924658	0.0
0.752500	1787824723941108224	4.894495756984541e-05	5.388458608624323e-05	-4.2821289241188315e-06	0.0	9.808283871924658	0.0
0.757500	1787824723944108288	4.894495756984541e-05	5.388458608624323e-05	-4.2821289241188315e-06	0.0	9.808283871924658	0.0
0.762500	1787824723950108416	4.894495756984541e-05	5.388458608624323e-05	-4.2821289241188315e-06	0.0	9.808283871924658	0.0
0.767500	1787824723956108032	4.894495756984541e-05	5.388458608624323e-05	-4.2821289241188315e-06	0.0	9.808283871924658	0.0
0.772500	1787824723962108160	4.894495756984541e-05	5.388458608624323e-05	-4.2821289241188315e-06	0.0	9.808283871924658	0.0
0.777500	1787824723965108224	4.894495756984541e-05	5.388458608624323e-05	-4.2821289241188315e-06	0.0	9.808283871924658	0.0
0.782500	1787824723971108096	4.894495756984541e-05	5.388458608624323e-05	-4.2821289241188315e-06	0.0	9.808283871924658	0.0
0.787500	1787824723974108160	4.894495756984541e-05	5.388458608624323e-05	-4.2821289241188315e-06	0.0	9.808283871924658	0.0
0.792500	1787824723980108288	4.894495756984541e-05	5.388458608624323e-05	-4.2821289241188315e-06	0.0	9.808283871924658	0.0
0.797500	1787824723986108416	4.894495756984541e-05	5.388458608624323e-05	-4.2821289241188315e-06	0.0	9.808283871924658	0.0
0.802500	1787824723992108032	4.894495756984541e-05	5.388458608624323e-05	-4.2821289241188315e-06	0.0	9.808283871924658	0.0
0.807500	1787824723995108096	4.894495756984541e-05	5.388458608624323e-05	-4.2821289241188315e-06	0.0	9.808283871924658	0.0
0.812500	1787824724001108224	4.894495756984541e-05	5.388458608624323e-05	-4.2821289241188315e-06	0.0	9.808283871924658	0.0
0.817500	1787824724004108288	4.894495756984541e-05	5.388458608624323e-05	-4.2821289241188315e-06	0.0	9.808283871924658	0.0
0.822500	1787824724010108160	4.894495756984541e-05	5.388458608624323e-05	-4.2821289241188315e-06	0.0	9.808283871924658	0.0
0.827500	1787824724016108288	4.894495756984541e-05	5.388458608624323e-05	-4.2821289241188315e-06	0.0	9.808283871924658	0.0
0.832500	1787824724022108416	4.894495756984541e-05	5.388458608624323e-05	-4.2821289241188315e-06	0.0	9.808283871924658	0.0
0.837500	1787824724025108224	4.894495756984541e-05	5.388458608624323e-05	-4.2821289241188315e-06	0.0	9.808283871924658	0.0
0.842500	1787824724031108096	4.894495756984541e-05	5.388458608624323e-05	-4.2821289241188315e-06	0.0	9.808283871924658	0.0
0.847500	1787824724034108160	4.894495756984541e-05	5.388458608624323e-05	-4.2821289241188315e-06	0.0	9.808283871924658	0.0
0.852500	1787824724040108288	4.894495756984541e-05	5.388458608624323e-05	-4.2821289241188315e-06	0.0	9.808283871924658	0.0
0.857500	1787824724046108160	4.894495756984541e-05	5.388458608624323e-05	-4.2821289241188315e-06	0.0	9.808283871924658	0.0
0.862500	1787824724052108288	4.894495756984541e-05	5.388458608624323e-05	-4.2821289241188315e-06	0.0	9.808283871924658	0.0
0.867500	1787824724055108352	4.894495756984541e-05	5.388458608624323e-05	-4.2821289241188315e-06	0.0	9.808283871924658	0.0
0.872500	1787824724061108224	4.894495756984541e-05	5.388458608624323e-05	-4.2821289241188315e-06	0.0	9.808283871924658	0.0
0.877500	1787824724064108032	4.894495756984541e-05	5.388458608624323e-05	-4.2821289241188315e-06	0.0	9.808283871924658	0.0
0.882500	1787824724070108160	4.894495756984541e-05	5.388458608624323e-05	-4.2821289241188315e-06	0.0	9.808283871924658	0.0
0.887500	1787824724076108288	4.894495756984541e-05	5.388458608624323e-05	-4.2821289241188315e-06	0.0	9.808283871924658	0.0
0.892500	1787824724082108160	4.894495756984541e-05	5.388458608624323e-05	-4.2821289241188315e-06	0.0	9.808283871924658	0.0
0.897500	1787824724085108224	4.894495756984541e-05	5.388458608624323e-05	-4.2821289241188315e-06	0.0	9.808283871924658	0.0
0.902500	1787824724091108352	4.894495756984541e-05	5.388458608624323e-05	-4.2821289241188315e-06	0.0	9.808283871924658	0.0
0.907500	1787824724094108160	4.894495756984541e-05	5.388458608624323e-05	-4.2821289241188315e-06	0.0	9.808283871924658	0.0
0.912500	1787824724100108032	4.894495756984541e-05	5.388458608624323e-05	-4.2821289241188315e-06	0.0	9.808283871924658	0.0
0.917500	1787824724106108160	4.894495756984541e-05	5.388458608624323e-05	-4.2821289241188315e-06	0.0	9.808283871924658	0.0
0.922500	1787824724112108288	4.894495756984541e-05	5.388458608624323e-05	-4.2821289241188315e-06	0.0	9.808283871924658	0.0
0.927500	1787824724115108352	4.894495756984541e-05	5.388458608624323e-05	-4.2821289241188315e-06	0.0	9.808283871924658	0.0
0.932500	1787824724121108224	4.894495756984541e-05	5.388458608624323e-05	-4.2821289241188315e-06	0.0	9.808283871924658	0.0
0.937500	1787824724124108288	4.894495756984541e-05	5.388458608624323e-05	-4.2821289241188315e-06	0.0	9.808283871924658	0.0
0.942500	1787824724130108160	4.894495756984541e-05	5.388458608624323e-05	-4.2821289241188315e-06	0.0	9.808283871924658	0.0
0.947500	1787824724136108288	4.894495756984541e-05	5.388458608624323e-05	-4.2821289241188315e-06	0.0	9.808283871924658	0.0
0.952500	1787824724142108160	4.894495756984541e-05	5.388458608624323e-05	-4.2821289241188315e-06	0.0	9.808283871924658	0.0
0.957500	1787824724145108224	4.894495756984541e-05	5.388458608624323e-05	-4.2821289241188315e-06	0.0	9.808283871924658	0.0
0.962500	1787824724151108352	4.894495756984541e-05	5.388458608624323e-05	-4.2821289241188315e-06	0.0	9.808283871924658	0.0
0.967500	1787824724154108160	4.894495756984541e-05	5.388458608624323e-05	-4.2821289241188315e-06	0.0	9.808283871924658	0.0
0.972500	1787824724160108032	4.894495756984541e-05	5.388458608624323e-05	-4.2821289241188315e-06	0.0	9.808283871924658	0.0
0.977500	1787824724166108160	4.894495756984541e-05	5.388458608624323e-05	-4.2821289241188315e-06	0.0	9.808283871924658	0.0
0.982500	1787824724169108224	4.894495756984541e-05	5.388458608624323e-05	-4.2821289241188315e-06	0.0	9.808283871924658	0.0
0.987500	1787824724175108096	4.894495756984541e-05	5.388458608624323e-05	-4.2821289241188315e-06	0.0	9.808283871924658	0.0
0.992500	1787824724181108224	4.894495756984541e-05	5.388458608624323e-05	-4.2821289241188315e-06	0.0	9.808283871924658	0.0
0.997500	1787824724184108288	4.894495756984541e-05	5.388458608624323e-05	-4.2821289241188315e-06	0.0	9.808283871924658	0.0
1.002500	1787824724190108416	4.894495756984541e-05	5.388458608624323e-05	-4.2821289241188315e-06	0.0	9.808283871924658	0.0
1.007500	1787824724196108032	4.894495756984541e-05	5.388458608624323e-05	-4.2821289241188315e-06	0.0	9.808283871924658	0.0
1.012500	1787824724202108160	4.894495756984541e-05	5.388458608624323e-05	-4.2821289241188315e-06	0.0	9.808283871924658	0.0
1.017500	1787824724205108224	4.894495756984541e-05	5.388458608624323e-05	-4.2821289241188315e-06	0.0	9.808283871924658	0.0
1.022500	1787824724211108096	4.894495756984541e-05	5.388458608624323e-05	-4.2821289241188315e-06	0.0	9.808283871924658	0.0
1.027500	1787824724214108160	4.894495756984541e-05	5.388458608624323e-05	-4.2821289241188315e-06	0.0	9.808283871924658	0.0
1.032500	1787824724220108288	4.894495756984541e-05	5.388458608624323e-05	-4.2821289241188315e-06	0.0	9.808283871924658	0.0
1.037500	1787824724226108416	4.894495756984541e-05	5.388458608624323e-05	-4.2821289241188315e-06	0.0	9.808283871924658	0.0
1.042500	1787824724232108032	4.894495756984541e-05	5.388458608624323e-05	-4.2821289241188315e-06	0.0	9.808283871924658	0.0
1.047500	1787824724235108096	4.894495756984541e-05	5.388458608624323e-05	-4.2821289241188315e-06	0.0	9.808283871924658	0.0
1.052500	1787824724241108224	4.894495756984541e-05	5.388458608624323e-05	-4.2821289241188315e-06	0.0	9.808283871924658	0.0
1.057500	1787824724244108288	4.894495756984541e-05	5.388458608624323e-05	-4.2821289241188315e-06	0.0	9.808283871924658	0.0
1.062500	1787824724250108160	4.894495756984541e-05	5.388458608624323e-05	-4.2821289241188315e-06	0.0	9.808283871924658	0.0
1.067500	1787824724256108288	4.894495756984541e-05	5.388458608624323e-05	-4.2821289241188315e-06	0.0	9.808283871924658	0.0
1.072500	1787824724262108160	4.894495756984541e-05	5.388458608624323e-05	-4.2821289241188315e-06	0.0	9.808283871924658	0.0
1.077500	1787824724265108224	4.894495756984541e-05	5.388458608624323e-05	-4.2821289241188315e-06	0.0	9.808283871924658	0.0
1.082500	1787824724271108096	4.894495756984541e-05	5.388458608624323e-05	-4.2821289241188315e-06	0.0	9.808283871924658	0.0
1.087500	1787824724274108160	4.894495756984541e-05	5.388458608624323e-05	-4.2821289241188315e-06	0.0	9.808283871924658	0.0
1.092500	1787824724280108288	4.894495756984541e-05	5.388458608624323e-05	-4.2821289241188315e-06	0.0	9.808283871924658	0.0
1.097500	1787824724286108160	4.894495756984541e-05	5.388458608624323e-05	-4.2821289241188315e-06	0.0	9.808283871924658	0.0
1.102500	1787824724292108288	4.894495756984541e-05	5.388458608624323e-05	-4.2821289241188315e-06	0.0	9.808283871924658	0.0
1.107500	1787824724295108352	4.894495756984541e-05	5.388458608624323e-05	-4.2821289241188315e-06	0.0	9.808283871924658	0.0
1.112500	1787824724301108224	4.894495756984541e-05	5.388458608624323e-05	-4.2821289241188315e-06	0.0	9.808283871924658	0.0
1.117500	1787824724304108032	4.894495756984541e-05	5.388458608624323e-05	-4.2821289241188315e-06	0.0	9.808283871924658	0.0
1.122500	1787824724310108160	4.894495756984541e-05	5.388458608624323e-05	-4.2821289241188315e-06	0.0	9.808283871924658	0.0
1.127500	1787824724316108288	4.894495756984541e-05	5.388458608624323e-05	-4.2821289241188315e-06	0.0	9.808283871924658	0.0
1.132500	1787824724322108160	4.894495756984541e-05	5.388458608624323e-05	-4.2821289241188315e-06	0.0	9.808283871924658	0.0
1.137500	1787824724325108224	4.894495756984541e-05	5.388458608624323e-05	-4.2821289241188315e-06	0.0	9.808283871924658	0.0
1.142500	1787824724331108096	4.894495756984541e-05	5.388458608624323e-05	-4.2821289241188315e-06	0.0	9.808283871924658	0.0
1.147500	1787824724334108160	4.894495756984541e-05	5.388458608624323e-05	-4.2821289241188315e-06	0.0	9.808283871924658	0.0
1.152500	1787824724340108032	4.894495756984541e-05	5.388458608624323e-05	-4.2821289241188315e-06	0.0	9.808283871924658	0.0
1.157500	1787824724346108160	4.894495756984541e-05	5.388458608624323e-05	-4.2821289241188315e-06	0.0	9.808283871924658	0.0
1.162500	1787824724349108224	4.894495756984541e-05	5.388458608624323e-05	-4.2821289241188315e-06	0.0	9.808283871924658	0.0
1.167500	1787824724355108352	4.894495756984541e-05	5.388458608624323e-05	-4.2821289241188315e-06	0.0	9.808283871924658	0.0
1.172500	1787824724361108224	4.894495756984541e-05	5.388458608624323e-05	-4.2821289241188315e-06	0.0	9.808283871924658	0.0
1.177500	1787824724364108288	4.894495756984541e-05	5.388458608624323e-05	-4.2821289241188315e-06	0.0	9.808283871924658	0.0
1.182500	1787824724370108160	4.894495756984541e-05	5.388458608624323e-05	-4.2821289241188315e-06	0.0	9.808283871924658	0.0
1.187500	1787824724376108288	4.894495756984541e-05	5.388458608624323e-05	-4.2821289241188315e-06	0.0	9.808283871924658	0.0
1.192500	1787824724379108096	4.894495756984541e-05	5.388458608624323e-05	-4.2821289241188315e-06	0.0	9.808283871924658	0.0
1.197500	1787824724385108224	4.894495756984541e-05	5.388458608624323e-05	-4.2821289241188315e-06	0.0	9.808283871924658	0.0
1.202500	1787824724391108352	4.894495756984541e-05	5.388458608624323e-05	-4.2821289241188315e-06	0.0	9.808283871924658	0.0
1.207500	1787824724394108416	4.894495756984541e-05	5.388458608624323e-05	-4.2821289241188315e-06	0.0	9.808283871924658	0.0
1.212500	1787824724400108032	4.894495756984541e-05	5.388458608624323e-05	-4.2821289241188315e-06	0.0	9.808283871924658	0.0
1.217500	1787824724406108160	4.894495756984541e-05	5.388458608624323e-05	-4.2821289241188315e-06	0.0	9.808283871924658	0.0
1.222500	1787824724409108224	4.894495756984541e-05	5.388458608624323e-05	-4.2821289241188315e-06	0.0	9.808283871924658	0.0
1.227500	1787824724415108096	4.894495756984541e-05	5.388458608624323e-05	-4.2821289241188315e-06	0.0	9.808283871924658	0.0
1.232500	1787824724421108224	4.894495756984541e-05	5.388458608624323e-05	-4.2821289241188315e-06	0.0	9.808283871924658	0.0
1.237500	1787824724424108288	4.894495756984541e-05	5.388458608624323e-05	-4.2821289241188315e-06	0.0	9.808283871924658	0.0
1.242500	1787824724430108416	4.894495756984541e-05	5.388458608624323e-05	-4.2821289241188315e-06	0.0	9.808283871924658	0.0
1.247500	1787824724436108032	4.894495756984541e-05	5.388458608624323e-05	-4.2821289241188315e-06	0.0	9.808283871924658	0.0
1.252500	1787824724442108160	4.894495756984541e-05	5.388458608624323e-05	-4.2821289241188315e-06	0.0	9.808283871924658	0.0
1.257500	1787824724445108224	4.894495756984541e-05	5.388458608624323e-05	-4.2821289241188315e-06	0.0	9.808283871924658	0.0
1.262500	1787824724451108096	4.894495756984541e-05	5.388458608624323e-05	-4.2821289241188315e-06	0.0	9.808283871924658	0.0
1.267500	1787824724454108160	4.894495756984541e-05	5.388458608624323e-05	-4.2821289241188315e-06	0.0	9.808283871924658	0.0
1.272500	1787824724460108288	4.894495756984541e-05	5.388458608624323e-05	-4.2821289241188315e-06	0.0	9.808283871924658	0.0
1.277500	1787824724466108416	4.894495756984541e-05	5.388458608624323e-05	-4.2821289241188315e-06	0.0	9.808283871924658	0.0
1.282500	1787824724472108032	4.894495756984541e-05	5.388458608624323e-05	-4.2821289241188315e-06	0.0	9.808283871924658	0.0
1.287500	1787824724475108096	4.894495756984541e-05	5.388458608624323e-05	-4.2821289241188315e-06	0.0	9.808283871924658	0.0
1.292500	1787824724481108224	4.894495756984541e-05	5.388458608624323e-05	-4.2821289241188315e-06	0.0	9.808283871924658	0.0
1.297500	1787824724484108288	4.894495756984541e-05	5.388458608624323e-05	-4.2821289241188315e-06	0.0	9.808283871924658	0.0
1.302500	1787824724490108160	4.894495756984541e-05	5.388458608624323e-05	-4.2821289241188315e-06	0.0	9.808283871924658	0.0
1.307500	1787824724496108288	4.894495756984541e-05	5.388458608624323e-05	-4.2821289241188315e-06	0.0	9.808283871924658	0.0
1.312500	1787824724502108160	4.894495756984541e-05	5.388458608624323e-05	-4.2821289241188315e-06	0.0	9.808283871924658	0.0
1.317500	1787824724505108224	4.894495756984541e-05	5.388458608624323e-05	-4.2821289241188315e-06	0.0	9.808283871924658	0.0
1.322500	1787824724511108096	4.894495756984541e-05	5.388458608624323e-05	-4.2821289241188315e-06	0.0	9.808283871924658	0.0
1.327500	1787824724514108160	4.894495756984541e-05	5.388458608624323e-05	-4.2821289241188315e-06	0.0	9.808283871924658	0.0
1.332500	1787824724520108288	4.894495756984541e-05	5.388458608624323e-05	-4.2821289241188315e-06	0.0	9.808283871924658	0.0
1.337500	1787824724526108160	4.894495756984541e-05	5.388458608624323e-05	-4.2821289241188315e-06	0.0	9.808283871924658	0.0
1.342500	1787824724532108288	4.894495756984541e-05	5.388458608624323e-05	-4.2821289241188315e-06	0.0	9.808283871924658	0.0
1.347500	1787824724535108096	4.894495756984541e-05	5.388458608624323e-05	-4.2821289241188315e-06	0.0	9.808283871924658	0.0
1.352500	1787824724541108224	4.894495756984541e-05	5.388458608624323e-05	-4.2821289241188315e-06	0.0	9.808283871924658	0.0
1.357500	1787824724544108032	4.894495756984541e-05	5.388458608624323e-05	-4.2821289241188315e-06	0.0	9.808283871924658	0.0
1.362500	1787824724550108160	4.894495756984541e-05	5.388458608624323e-05	-4.2821289241188315e-06	0.0	9.808283871924658	0.0
1.367500	1787824724556108288	4.894495756984541e-05	5.388458608624323e-05	-4.2821289241188315e-06	0.0	9.808283871924658	0.0
1.372500	1787824724562108160	4.894495756984541e-05	5.388458608624323e-05	-4.2821289241188315e-06	0.0	9.808283871924658	0.0
1.377500	1787824724565108224	4.894495756984541e-05	5.388458608624323e-05	-4.2821289241188315e-06	0.0	9.808283871924658	0.0
1.382500	1787824724571108096	4.894495756984541e-05	5.388458608624323e-05	-4.2821289241188315e-06	0.0	9.808283871924658	0.0
1.387500	1787824724574108160	4.894495756984541e-05	5.388458608624323e-05	-4.2821289241188315e-06	0.0	9.808283871924658	0.0
1.392500	1787824724580108288	4.894495756984541e-05	5.388458608624323e-05	-4.2821289241188315e-06	0.0	9.808283871924658	0.0
1.397500	1787824724586108160	4.894495756984541e-05	5.388458608624323e-05	-4.2821289241188315e-06	0.0	9.808283871924658	0.0
1.402500	1787824724592108288	4.894495756984541e-05	5.388458608624323e-05	-4.2821289241188315e-06	0.0	9.808283871924658	0.0
1.407500	1787824724595108352	4.894495756984541e-05	5.388458608624323e-05	-4.2821289241188315e-06	0.0	9.808283871924658	0.0
1.412500	1787824724601108224	4.894495756984541e-05	5.388458608624323e-05	-4.2821289241188315e-06	0.0	9.808283871924658	0.0
1.417500	1787824724604108032	4.894495756984541e-05	5.388458608624323e-05	-4.2821289241188315e-06	0.0	9.808283871924658	0.0
1.422500	1787824724610108160	4.894495756984541e-05	5.388458608624323e-05	-4.2821289241188315e-06	0.0	9.808283871924658	0.0
1.427500	1787824724616108288	4.894495756984541e-05	5.388458608624323e-05	-4.2821289241188315e-06	0.0	9.808283871924658	0.0
1.432500	1787824724619108096	4.894495756984541e-05	5.388458608624323e-05	-4.2821289241188315e-06	0.0	9.808283871924658	0.0
1.437500	1787824724625108224	4.894495756984541e-05	5.388458608624323e-05	-4.2821289241188315e-06	0.0	9.808283871924658	0.0
1.442500	1787824724631108352	4.894495756984541e-05	5.388458608624323e-05	-4.2821289241188315e-06	0.0	9.808283871924658	0.0
1.447500	1787824724634108416	4.894495756984541e-05	5.388458608624323e-05	-4.2821289241188315e-06	0.0	9.808283871924658	0.0
1.452500	1787824724640108032	4.894495756984541e-05	5.388458608624323e-05	-4.2821289241188315e-06	0.0	9.808283871924658	0.0
1.457500	1787824724646108160	4.894495756984541e-05	5.388458608624323e-05	-4.2821289241188315e-06	0.0	9.808283871924658	0.0
1.462500	1787824724649108224	4.894495756984541e-05	5.388458608624323e-05	-4.2821289241188315e-06	0.0	9.808283871924658	0.0
1.467500	1787824724655108096	4.894495756984541e-05	5.388458608624323e-05	-4.2821289241188315e-06	0.0	9.808283871924658	0.0
1.472500	1787824724661108224	4.894495756984541e-05	5.388458608624323e-05	-4.2821289241188315e-06	0.0	9.808283871924658	0.0
1.477500	1787824724664108288	4.894495756984541e-05	5.388458608624323e-05	-4.2821289241188315e-06	0.0	9.808283871924658	0.0
1.482500	1787824724670108416	4.894495756984541e-05	5.388458608624323e-05	-4.2821289241188315e-06	0.0	9.808283871924658	0.0
1.487500	1787824724676108032	4.894495756984541e-05	5.388458608624323e-05	-4.2821289241188315e-06	0.0	9.808283871924658	0.0
1.492500	1787824724679108096	4.894495756984541e-05	5.388458608624323e-05	-4.2821289241188315e-06	0.0	9.808283871924658	0.0
1.497500	1787824724685108224	4.894495756984541e-05	5.388458608624323e-05	-4.2821289241188315e-06	0.0	9.808283871924658	0.0
1.502500	1787824724691108352	4.894495756984541e-05	5.388458608624323e-05	-4.2821289241188315e-06	0.0	9.808283871924658	0.0
1.507500	1787824724694108160	4.894495756984541e-05	5.388458608624323e-05	-4.2821289241188315e-06	0.0	9.808283871924658	0.0
1.512500	1787824724700108288	4.894495756984541e-05	5.388458608624323e-05	-4.2821289241188315e-06	0.0	9.808283871924658	0.0
1.517500	1787824724706108160	4.894495756984541e-05	5.388458608624323e-05	-4.2821289241188315e-06	0.0	9.808283871924658	0.0
1.522500	1787824724712108032	4.894495756984541e-05	5.388458608624323e-05	-4.2821289241188315e-06	0.0	9.808283871924658	0.0
1.527500	1787824724715108096	4.894495756984541e-05	5.388458608624323e-05	-4.2821289241188315e-06	0.0	9.808283871924658	0.0
1.532500	1787824724721108224	4.894495756984541e-05	5.388458608624323e-05	-4.2821289241188315e-06	0.0	9.808283871924658	0.0
1.537500	1787824724724108288	4.894495756984541e-05	5.388458608624323e-05	-4.2821289241188315e-06	0.0	9.808283871924658	0.0
1.542500	1787824724730108160	4.894495756984541e-05	5.388458608624323e-05	-4.2821289241188315e-06	0.0	9.808283871924658	0.0
1.547500	1787824724736108288	4.894495756984541e-05	5.388458608624323e-05	-4.2821289241188315e-06	0.0	9.808283871924658	0.0
1.552500	1787824724742108160	4.894495756984541e-05	5.388458608624323e-05	-4.2821289241188315e-06	0.0	9.808283871924658	0.0
1.557500	1787824724745108224	4.894495756984541e-05	5.388458608624323e-05	-4.2821289241188315e-06	0.0	9.808283871924658	0.0
1.562500	1787824724751108096	4.894495756984541e-05	5.388458608624323e-05	-4.2821289241188315e-06	0.0	9.808283871924658	0.0
1.567500	1787824724754108160	4.894495756984541e-05	5.388458608624323e-05	-4.2821289241188315e-06	0.0	9.808283871924658	0.0
1.572500	1787824724760108288	4.894495756984541e-05	5.388458608624323e-05	-4.2821289241188315e-06	0.0	9.808283871924658	0.0
1.577500	1787824724766108160	4.894495756984541e-05	5.388458608624323e-05	-4.2821289241188315e-06	0.0	9.808283871924658	0.0
1.582500	1787824724772108288	4.894495756984541e-05	5.388458608624323e-05	-4.2821289241188315e-06	0.0	9.808283871924658	0.0
1.587500	1787824724775108096	4.894495756984541e-05	5.388458608624323e-05	-4.2821289241188315e-06	0.0	9.808283871924658	0.0
1.592500	1787824724781108224	4.894495756984541e-05	5.388458608624323e-05	-4.2821289241188315e-06	0.0	9.808283871924658	0.0
1.597500	1787824724784108288	4.894495756984541e-05	5.388458608624323e-05	-4.2821289241188315e-06	0.0	9.808283871924658	0.0
1.602500	1787824724790108160	4.894495756984541e-05	5.388458608624323e-05	-4.2821289241188315e-06	0.0	9.808283871924658	0.0
1.607500	1787824724796108288	4.894495756984541e-05	5.388458608624323e-05	-4.2821289241188315e-06	0.0	9.808283871924658	0.0
1.612500	1787824724802108160	4.894495756984541e-05	5.388458608624323e-05	-4.2821289241188315e-06	0.0	9.808283871924658	0.0
1.617500	1787824724805108224	4.894495756984541e-05	5.388458608624323e-05	-4.2821289241188315e-06	0.0	9.808283871924658	0.0
1.622500	1787824724811108096	4.894495756984541e-05	5.388458608624323e-05	-4.2821289241188315e-06	0.0	9.808283871924658	0.0
1.627500	1787824724814108160	4.894495756984541e-05	5.388458608624323e-05	-4.2821289241188315e-06	0.0	9.808283871924658	0.0
1.632500	1787824724820108288	4.894495756984541e-05	5.388458608624323e-05	-4.2821289241188315e-06	0.0	9.808283871924658	0.0
1.637500	1787824724826108160	4.894495756984541e-05	5.388458608624323e-05	-4.2821289241188315e-06	0.0	9.808283871924658	0.0
1.642500	1787824724832108288	4.894495756984541e-05	5.388458608624323e-05	-4.2821289241188315e-06	0.0	9.808283871924658	0.0
1.647500	1787824724835108352	4.894495756984541e-05	5.388458608624323e-05	-4.2821289241188315e-06	0.0	9.808283871924658	0.0
1.652500	1787824724841108224	4.894495756984541e-05	5.388458608624323e-05	-4.2821289241188315e-06	0.0	9.808283871924658	0.0
1.657500	1787824724844108032	4.894495756984541e-05	5.388458608624323e-05	-4.2821289241188315e-06	0.0	9.808283871924658	0.0
1.662500	1787824724850108160	4.894495756984541e-05	5.388458608624323e-05	-4.2821289241188315e-06	0.0	9.808283871924658	0.0
1.667500	1787824724856108288	4.894495756984541e-05	5.388458608624323e-05	-4.2821289241188315e-06	0.0	9.808283871924658	0.0
1.672500	1787824724862108160	4.894495756984541e-05	5.388458608624323e-05	-4.2821289241188315e-06	0.0	9.808283871924658	0.0
1.677500	1787824724865108224	4.894495756984541e-05	5.388458608624323e-05	-4.2821289241188315e-06	0.0	9.808283871924658	0.0
1.682500	1787824724871108352	4.894495756984541e-05	5.388458608624323e-05	-4.2821289241188315e-06	0.0	9.808283871924658	0.0
1.687500	1787824724874108416	4.894495756984541e-05	5.388458608624323e-05	-4.2821289241188315e-06	0.0	9.808283871924658	0.0
1.692500	1787824724880108032	4.894495756984541e-05	5.388458608624323e-05	-4.2821289241188315e-06	0.0	9.808283871924658	0.0
1.697500	1787824724886108160	4.894495756984541e-05	5.388458608624323e-05	-4.2821289241188315e-06	0.0	9.808283871924658	0.0
1.702500	1787824724892108288	4.894495756984541e-05	5.388458608624323e-05	-4.2821289241188315e-06	0.0	9.808283871924658	0.0
1.707500	1787824724895108096	4.894495756984541e-05	5.388458608624323e-05	-4.2821289241188315e-06	0.0	9.808283871924658	0.0
1.712500	1787824724901108224	4.894495756984541e-05	5.388458608624323e-05	-4.2821289241188315e-06	0.0	9.808283871924658	0.0
1.717500	1787824724904108288	4.894495756984541e-05	5.388458608624323e-05	-4.2821289241188315e-06	0.0	9.808283871924658	0.0
1.722500	1787824724910108160	4.894495756984541e-05	5.388458608624323e-05	-4.2821289241188315e-06	0.0	9.808283871924658	0.0
1.727500	1787824724916108032	4.894495756984541e-05	5.388458608624323e-05	-4.2821289241188315e-06	0.0	9.808283871924658	0.0
1.732500	1787824724922108160	4.894495756984541e-05	5.388458608624323e-05	-4.2821289241188315e-06	0.0	9.808283871924658	0.0
1.737500	1787824724925108224	4.894495756984541e-05	5.388458608624323e-05	-4.2821289241188315e-06	0.0	9.808283871924658	0.0
1.742500	1787824724931108352	4.894495756984541e-05	5.388458608624323e-05	-4.2821289241188315e-06	0.0	9.808283871924658	0.0
1.747500	1787824724934108160	4.894495756984541e-05	5.388458608624323e-05	-4.2821289241188315e-06	0.0	9.808283871924658	0.0
1.752500	1787824724940108288	4.894495756984541e-05	5.388458608624323e-05	-4.2821289241188315e-06	0.0	9.808283871924658	0.0
1.757500	1787824724946108160	4.894495756984541e-05	5.388458608624323e-05	-4.2821289241188315e-06	0.0	9.808283871924658	0.0
1.762500	1787824724952108032	4.894495756984541e-05	5.388458608624323e-05	-4.2821289241188315e-06	0.0	9.808283871924658	0.0
1.767500	1787824724955108096	4.894495756984541e-05	5.388458608624323e-05	-4.2821289241188315e-06	0.0	9.808283871924658	0.0
1.772500	1787824724961108224	4.894495756984541e-05	5.388458608624323e-05	-4.2821289241188315e-06	0.0	9.808283871924658	0.0
1.777500	1787824724964108288	4.894495756984541e-05	5.388458608624323e-05	-4.2821289241188315e-06	0.0	9.808283871924658	0.0
1.782500	1787824724970108160	4.894495756984541e-05	5.388458608624323e-05	-4.2821289241188315e-06	0.0	9.808283871924658	0.0
1.787500	1787824724976108288	4.894495756984541e-05	5.388458608624323e-05	-4.2821289241188315e-06	0.0	9.808283871924658	0.0
1.792500	1787824724982108160	4.894495756984541e-05	5.388458608624323e-05	-4.2821289241188315e-06	0.0	9.808283871924658	0.0
1.797500	1787824724985108224	4.894495756984541e-05	5.388458608624323e-05	-4.2821289241188315e-06	0.0	9.808283871924658	0.0
1.802500	1787824724991108096	4.894495756984541e-05	5.388458608624323e-05	-4.2821289241188315e-06	0.0	9.808283871924658	0.0
1.807500	1787824724994108160	4.894495756984541e-05	5.388458608624323e-05	-4.2821289241188315e-06	0.0	9.808283871924658	0.0
1.812500	1787824725000108288	4.894495756984541e-05	5.388458608624323e-05	-4.2821289241188315e-06	0.0	9.808283871924658	0.0
1.817500	1787824725006108160	4.894495756984541e-05	5.388458608624323e-05	-4.2821289241188315e-06	0.0	9.808283871924658	0.0
1.822500	1787824725012108032	4.894495756984541e-05	5.388458608624323e-05	-4.2821289241188315e-06	0.0	9.808283871924658	0.0
1.827500	1787824725015108096	4.894495756984541e-05	5.388458608624323e-05	-4.2821289241188315e-06	0.0	9.808283871924658	0.0
1.832500	1787824725021108224	4.894495756984541e-05	5.388458608624323e-05	-4.2821289241188315e-06	0.0	9.808283871924658	0.0
1.837500	1787824725024108288	4.894495756984541e-05	5.388458608624323e-05	-4.2821289241188315e-06	0.0	9.808283871924658	0.0
1.842500	1787824725030108160	4.894495756984541e-05	5.388458608624323e-05	-4.2821289241188315e-06	0.0	9.808283871924658	0.0
1.847500	1787824725036108288	4.894495756984541e-05	5.388458608624323e-05	-4.2821289241188315e-06	0.0	9.808283871924658	0.0
1.852500	1787824725042108416	4.894495756984541e-05	5.388458608624323e-05	-4.2821289241188315e-06	0.0	9.808283871924658	0.0
1.857500	1787824725045108224	4.894495756984541e-05	5.388458608624323e-05	-4.2821289241188315e-06	0.0	9.808283871924658	0.0
1.862500	1787824725051108096	4.894495756984541e-05	5.388458608624323e-05	-4.2821289241188315e-06	0.0	9.808283871924658	0.0
1.867500	1787824725054108160	4.894495756984541e-05	5.388458608624323e-05	-4.2821289241188315e-06	0.0	9.808283871924658	0.0
1.872500	1787824725060108288	4.894495756984541e-05	5.388458608624323e-05	-4.2821289241188315e-06	0.0	9.808283871924658	0.0
1.877500	1787824725066108160	4.894495756984541e-05	5.388458608624323e-05	-4.2821289241188315e-06	0.0	9.808283871924658	0.0
1.882500	1787824725072108288	4.894495756984541e-05	5.388458608624323e-05	-4.2821289241188315e-06	0.0	9.808283871924658	0.0
1.887500	1787824725075108352	4.894495756984541e-05	5.388458608624323e-05	-4.2821289241188315e-06	0.0	9.808283871924658	0.0
1.892500	1787824725081107968	4.894495756984541e-05	5.388458608624323e-05	-4.2821289241188315e-06	0.0	9.808283871924658	0.0
1.897500	1787824725084108032	4.894495756984541e-05	5.388458608624323e-05	-4.2821289241188315e-06	0.0	9.808283871924658	0.0
1.902500	1787824725090108160	4.894495756984541e-05	5.388458608624323e-05	-4.2821289241188315e-06	0.0	9.808283871924658	0.0
1.907500	1787824725096108288	4.894495756984541e-05	5.388458608624323e-05	-4.2821289241188315e-06	0.0	9.808283871924658	0.0
1.912500	1787824725102108160	4.894495756984541e-05	5.388458608624323e-05	-4.2821289241188315e-06	0.0	9.808283871924658	0.0
1.917500	1787824725105108224	4.894495756984541e-05	5.388458608624323e-05	-4.2821289241188315e-06	0.0	9.808283871924658	0.0
1.922500	1787824725111108352	4.894495756984541e-05	5.388458608624323e-05	-4.2821289241188315e-06	0.0	9.808283871924658	0.0
1.927500	1787824725114108416	4.894495756984541e-05	5.388458608624323e-05	-4.2821289241188315e-06	0.0	9.808283871924658	0.0
1.932500	1787824725120108032	4.894495756984541e-05	5.388458608624323e-05	-4.2821289241188315e-06	0.0	9.808283871924658	0.0
1.937500	1787824725126108160	4.894495756984541e-05	5.388458608624323e-05	-4.2821289241188315e-06	0.0	9.808283871924658	0.0
1.942500	1787824725132108288	4.894495756984541e-05	5.388458608624323e-05	-4.2821289241188315e-06	0.0	9.808283871924658	0.0
1.947500	1787824725135108352	4.894495756984541e-05	5.388458608624323e-05	-4.2821289241188315e-06	0.0	9.808283871924658	0.0
1.952500	1787824725141108224	4.894495756984541e-05	5.388458608624323e-05	-4.2821289241188315e-06	0.0	9.808283871924658	0.0
1.957500	1787824725144108288	4.894495756984541e-05	5.388458608624323e-05	-4.2821289241188315e-06	0.0	9.808283871924658	0.0
1.962500	1787824725150108160	4.894495756984541e-05	5.388458608624323e-05	-4.2821289241188315e-06	0.0	9.808283871924658	0.0
1.967500	1787824725156108032	4.894495756984541e-05	5.388458608624323e-05	-4.2821289241188315e-06	0.0	9.808283871924658	0.0
1.972500	1787824725162108160	4.894495756984541e-05	5.388458608624323e-05	-4.2821289241188315e-06	0.0	9.808283871924658	0.0
1.977500	1787824725165108224	4.894495756984541e-05	5.388458608624323e-05	-4.2821289241188315e-06	0.0	9.808283871924658	0.0
1.982500	1787824725171108352	4.894495756984541e-05	5.388458608624323e-05	-4.2821289241188315e-06	0.0	9.808283871924658	0.0
1.987500	1787824725174108160	4.894495756984541e-05	5.388458608624323e-05	-4.2821289241188315e-06	0.0	9.808283871924658	0.0
1.992500	1787824725180108288	4.894495756984541e-05	5.388458608624323e-05	-4.2821289241188315e-06	0.0	9.808283871924658	0.0
1.997500	1787824725186108160	4.894495756984541e-05	5.388458608624323e-05	-4.2821289241188315e-06	0.0	9.808283871924658	0.0
2.002500	1787824725192108032	4.894495756984541e-05	5.388458608624323e-05	-4.2821289241188315e-06	0.0	9.808283871924658	0.0
2.007500	1787824725195108096	4.894495756984541e-05	5.388458608624323e-05	-4.2821289241188315e-06	0.0	9.808283871924658	0.0
2.012500	1787824725201108224	4.894495756984541e-05	5.388458608624323e-05	-4.2821289241188315e-06	0.0	9.808283871924658	0.0
2.017500	1787824725204108288	4.894495756984541e-05	5.388458608624323e-05	-4.2821289241188315e-06	0.0	9.808283871924658	0.0
2.022500	1787824725210108160	4.894495756984541e-05	5.388458608624323e-05	-4.2821289241188315e-06	0.0	9.808283871924658	0.0
2.027500	1787824725216108288	4.894495756984541e-05	5.388458608624323e-05	-4.2821289241188315e-06	0.0	9.808283871924658	0.0
2.032500	1787824725222108160	4.894495756984541e-05	5.388458608624323e-05	-4.2821289241188315e-06	0.0	9.808283871924658	0.0
2.037500	1787824725225108224	4.894495756984541e-05	5.388458608624323e-05	-4.2821289241188315e-06	0.0	9.808283871924658	0.0
2.042500	1787824725231108096	4.894495756984541e-05	5.388458608624323e-05	-4.2821289241188315e-06	0.0	9.808283871924658	0.0
2.047500	1787824725234108160	4.894495756984541e-05	5.388458608624323e-05	-4.2821289241188315e-06	0.0	9.808283871924658	0.0
2.052500	1787824725240108288	4.894495756984541e-05	5.388458608624323e-05	-4.2821289241188315e-06	0.0	9.808283871924658	0.0
2.057500	1787824725246108416	4.894495756984541e-05	5.388458608624323e-05	-4.2821289241188315e-06	0.0	9.808283871924658	0.0
2.062500	1787824725252108032	4.894495756984541e-05	5.388458608624323e-05	-4.2821289241188315e-06	0.0	9.808283871924658	0.0
2.067500	1787824725255108096	4.894495756984541e-05	5.388458608624323e-05	-4.2821289241188315e-06	0.0	9.808283871924658	0.0
2.072500	1787824725261108224	4.894495756984541e-05	5.388458608624323e-05	-4.2821289241188315e-06	0.0	9.808283871924658	0.0
2.077500	1787824725264108288	4.894495756984541e-05	5.388458608624323e-05	-4.2821289241188315e-06	0.0	9.808283871924658	0.0
2.082500	1787824725270108160	4.894495756984541e-05	5.388458608624323e-05	-4.2821289241188315e-06	0.0	9.808283871924658	0.0
2.087500	1787824725276108288	4.894495756984541e-05	5.388458608624323e-05	-4.2821289241188315e-06	0.0	9.808283871924658	0.0
2.092500	1787824725279108352	4.894495756984541e-05	5.388458608624323e-05	-4.2821289241188315e-06	0.0	9.808283871924658	0.0
2.097500	1787824725285107968	4.894495756984541e-05	5.388458608624323e-05	-4.2821289241188315e-06	0.0	9.808283871924658	0.0
2.102500	1787824725291108096	4.894495756984541e-05	5.388458608624323e-05	-4.2821289241188315e-06	0.0	9.808283871924658	0.0
2.107500	1787824725294108160	4.894495756984541e-05	5.388458608624323e-05	-4.2821289241188315e-06	0.0	9.808283871924658	0.0
2.112500	1787824725300108288	4.894495756984541e-05	5.388458608624323e-05	-4.2821289241188315e-06	0.0	9.808283871924658	0.0
2.117500	1787824725306108160	4.894495756984541e-05	5.388458608624323e-05	-4.2821289241188315e-06	0.0	9.808283871924658	0.0
2.122500	1787824725312108288	4.894495756984541e-05	5.388458608624323e-05	-4.2821289241188315e-06	0.0	9.808283871924658	0.0
2.127500	1787824725315108352	4.894495756984541e-05	5.388458608624323e-05	-4.2821289241188315e-06	0.0	9.808283871924658	0.0
2.132500	1787824725321108224	4.894495756984541e-05	5.388458608624323e-05	-4.2821289241188315e-06	0.0	9.808283871924658	0.0
2.137500	1787824725324108032	4.894495756984541e-05	5.388458608624323e-05	-4.2821289241188315e-06	0.0	9.808283871924658	0.0
2.142500	1787824725330108160	4.894495756984541e-05	5.388458608624323e-05	-4.2821289241188315e-06	0.0	9.808283871924658	0.0
2.147500	1787824725336108288	4.894495756984541e-05	5.388458608624323e-05	-4.2821289241188315e-06	0.0	9.808283871924658	0.0
2.152500	1787824725339108352	4.894495756984541e-05	5.388458608624323e-05	-4.2821289241188315e-06	0.0	9.808283871924658	0.0
2.157500	1787824725345108224	4.894495756984541e-05	5.388458608624323e-05	-4.2821289241188315e-06	0.0	9.808283871924658	0.0
2.162500	1787824725351108352	4.894495756984541e-05	5.388458608624323e-05	-4.2821289241188315e-06	0.0	9.808283871924658	0.0
2.167500	1787824725354108160	4.894495756984541e-05	5.388458608624323e-05	-4.2821289241188315e-06	0.0	9.808283871924658	0.0
2.172500	1787824725360108032	4.894495756984541e-05	5.388458608624323e-05	-4.2821289241188315e-06	0.0	9.808283871924658	0.0
2.177500	1787824725366108160	4.894495756984541e-05	5.388458608624323e-05	-4.2821289241188315e-06	0.0	9.808283871924658	0.0
2.182500	1787824725372108288	4.894495756984541e-05	5.388458608624323e-05	-4.2821289241188315e-06	0.0	9.808283871924658	0.0
2.187500	1787824725375108352	4.894495756984541e-05	5.388458608624323e-05	-4.2821289241188315e-06	0.0	9.808283871924658	0.0
2.192500	1787824725381108224	4.894495756984541e-05	5.388458608624323e-05	-4.2821289241188315e-06	0.0	9.808283871924658	0.0
2.197500	1787824725384108288	4.894495756984541e-05	5.388458608624323e-05	-4.2821289241188315e-06	0.0	9.808283871924658	0.0
2.202500	1787824725390108160	4.894495756984541e-05	5.388458608624323e-05	-4.2821289241188315e-06	0.0	9.808283871924658	0.0
2.207500	1787824725396108032	4.894495756984541e-05	5.388458608624323e-05	-4.2821289241188315e-06	0.0	9.808283871924658	0.0
2.212500	1787824725402108160	4.894495756984541e-05	5.388458608624323e-05	-4.2821289241188315e-06	0.0	9.808283871924658	0.0
2.217500	1787824725405108224	4.894495756984541e-05	5.388458608624323e-05	-4.2821289241188315e-06	0.0	9.808283871924658	0.0
2.222500	1787824725411108352	4.894495756984541e-05	5.388458608624323e-05	-4.2821289241188315e-06	0.0	9.808283871924658	0.0
2.227500	1787824725414108160	4.894495756984541e-05	5.388458608624323e-05	-4.2821289241188315e-06	0.0	9.808283871924658	0.0
2.232500	1787824725420108288	4.894495756984541e-05	5.388458608624323e-05	-4.2821289241188315e-06	0.0	9.808283871924658	0.0
2.237500	1787824725426108160	4.894495756984541e-05	5.388458608624323e-05	-4.2821289241188315e-06	0.0	9.808283871924658	0.0
2.242500	1787824725432108288	4.894495756984541e-05	5.388458608624323e-05	-4.2821289241188315e-06	0.0	9.808283871924658	0.0
2.247500	1787824725435108096	4.894495756984541e-05	5.388458608624323e-05	-4.2821289241188315e-06	0.0	9.808283871924658	0.0
2.252500	1787824725441108224	4.894495756984541e-05	5.388458608624323e-05	-4.2821289241188315e-06	0.0	9.808283871924658	0.0
2.257500	1787824725444108288	4.894495756984541e-05	5.388458608624323e-05	-4.2821289241188315e-06	0.0	9.808283871924658	0.0
2.262500	1787824725450108416	4.894495756984541e-05	5.388458608624323e-05	-4.2821289241188315e-06	0.0	9.808283871924658	0.0
2.267500	1787824725456108032	4.894495756984541e-05	5.388458608624323e-05	-4.2821289241188315e-06	0.0	9.808283871924658	0.0
2.272500	1787824725462108160	4.894495756984541e-05	5.388458608624323e-05	-4.2821289241188315e-06	0.0	9.808283871924658	0.0
2.277500	1787824725465108224	4.894495756984541e-05	5.388458608624323e-05	-4.2821289241188315e-06	0.0	9.808283871924658	0.0
2.282500	1787824725471108096	4.894495756984541e-05	5.388458608624323e-05	-4.2821289241188315e-06	0.0	9.808283871924658	0.0
2.287500	1787824725474108160	4.894495756984541e-05	5.388458608624323e-05	-4.2821289241188315e-06	0.0	9.808283871924658	0.0
2.292500	1787824725480108288	4.894495756984541e-05	5.388458608624323e-05	-4.2821289241188315e-06	0.0	9.808283871924658	0.0
2.297500	1787824725486108416	4.894495756984541e-05	5.388458608624323e-05	-4.2821289241188315e-06	0.0	9.808283871924658	0.0
2.302500	1787824725492108032	4.894495756984541e-05	5.388458608624323e-05	-4.2821289241188315e-06	0.0	9.808283871924658	0.0
2.307500	1787824725495108096	4.894495756984541e-05	5.388458608624323e-05	-4.2821289241188315e-06	0.0	9.808283871924658	0.0
2.312500	1787824725501108224	4.894495756984541e-05	5.388458608624323e-05	-4.2821289241188315e-06	0.0	9.808283871924658	0.0
2.317500	1787824725504108288	4.894495756984541e-05	5.388458608624323e-05	-4.2821289241188315e-06	0.0	9.808283871924658	0.0
2.322500	1787824725510108160	4.894495756984541e-05	5.388458608624323e-05	-4.2821289241188315e-06	0.0	9.808283871924658	0.0
2.327500	1787824725516108288	4.894495756984541e-05	5.388458608624323e-05	-4.2821289241188315e-06	0.0	9.808283871924658	0.0
2.332500	1787824725522108416	4.894495756984541e-05	5.388458608624323e-05	-4.2821289241188315e-06	0.0	9.808283871924658	0.0
2.337500	1787824725525108224	4.894495756984541e-05	5.388458608624323e-05	-4.2821289241188315e-06	0.0	9.808283871924658	0.0
2.342500	1787824725531108096	4.894495756984541e-05	5.388458608624323e-05	-4.2821289241188315e-06	0.0	9.808283871924658	0.0
2.347500	1787824725534108160	4.894495756984541e-05	5.388458608624323e-05	-4.2821289241188315e-06	0.0	9.808283871924658	0.0
2.352500	1787824725540108288	4.894495756984541e-05	5.388458608624323e-05	-4.2821289241188315e-06	0.0	9.808283871924658	0.0
2.357500	1787824725546108160	4.894495756984541e-05	5.388458608624323e-05	-4.2821289241188315e-06	0.0	9.808283871924658	0.0
2.362500	1787824725549108224	4.894495756984541e-05	5.388458608624323e-05	-4.2821289241188315e-06	0.0	9.808283871924658	0.0
2.367500	1787824725555108352	4.894495756984541e-05	5.388458608624323e-05	-4.2821289241188315e-06	0.0	9.808283871924658	0.0
2.372500	1787824725561108224	4.894495756984541e-05	5.388458608624323e-05	-4.2821289241188315e-06	0.0	9.808283871924658	0.0
2.377500	1787824725564108032	4.894495756984541e-05	5.388458608624323e-05	-4.2821289241188315e-06	0.0	9.808283871924658	0.0
2.382500	1787824725570108160	4.894495756984541e-05	5.388458608624323e-05	-4.2821289241188315e-06	0.0	9.808283871924658	0.0
2.387500	1787824725576108288	4.894495756984541e-05	5.388458608624323e-05	-4.2821289241188315e-06	0.0	9.808283871924658	0.0
2.392500	1787824725582108160	4.894495756984541e-05	5.388458608624323e-05	-4.2821289241188315e-06	0.0	9.808283871924658	0.0
2.397500	1787824725585108224	4.894495756984541e-05	5.388458608624323e-05	-4.2821289241188315e-06	0.0	9.808283871924658	0.0
2.402500	1787824725591108352	4.894495756984541e-05	5.388458608624323e-05	-4.2821289241188315e-06	0.0	9.808283871924658	0.0
2.407500	1787824725594108160	4.894495756984541e-05	5.388458608624323e-05	-4.2821289241188315e-06	0.0	9.808283871924658	0.0
2.412500	1787824725600108032	4.894495756984541e-05	5.388458608624323e-05	-4.2821289241188315e-06	0.0	9.808283871924658	0.0
2.417500	1787824725606108160	4.894495756984541e-05	5.388458608624323e-05	-4.2821289241188315e-06	0.0	9.808283871924658	0.0
2.422500	1787824725609108224	4.894495756984541e-05	5.388458608624323e-05	-4.2821289241188315e-06	0.0	9.808283871924658	0.0
2.427500	1787824725615108352	4.894495756984541e-05	5.388458608624323e-05	-4.2821289241188315e-06	0.0	9.808283871924658	0.0
2.432500	1787824725621108224	4.894495756984541e-05	5.388458608624323e-05	-4.2821289241188315e-06	0.0	9.808283871924658	0.0
2.437500	1787824725624108288	4.894495756984541e-05	5.388458608624323e-05	-4.2821289241188315e-06	0.0	9.808283871924658	0.0
2.442500	1787824725630108160	4.894495756984541e-05	5.388458608624323e-05	-4.2821289241188315e-06	0.0	9.808283871924658	0.0
2.447500	1787824725636108288	4.894495756984541e-05	5.388458608624323e-05	-4.2821289241188315e-06	0.0	9.808283871924658	0.0
2.452500	1787824725642108160	4.894495756984541e-05	5.388458608624323e-05	-4.2821289241188315e-06	0.0	9.808283871924658	0.0
2.457500	1787824725645108224	4.894495756984541e-05	5.388458608624323e-05	-4.2821289241188315e-06	0.0	9.808283871924658	0.0
2.462500	1787824725651108352	4.894495756984541e-05	5.388458608624323e-05	-4.2821289241188315e-06	0.0	9.808283871924658	0.0
2.467500	1787824725654108160	4.894495756984541e-05	5.388458608624323e-05	-4.2821289241188315e-06	0.0	9.808283871924658	0.0
2.472500	1787824725660108032	4.894495756984541e-05	5.388458608624323e-05	-4.2821289241188315e-06	0.0	9.808283871924658	0.0
2.477500	1787824725666108160	4.894495756984541e-05	5.388458608624323e-05	-4.2821289241188315e-06	0.0	9.808283871924658	0.0
2.482500	1787824725672108288	4.894495756984541e-05	5.388458608624323e-05	-4.2821289241188315e-06	0.0	9.808283871924658	0.0
2.487500	1787824725675108096	4.894495756984541e-05	5.388458608624323e-05	-4.2821289241188315e-06	0.0	9.808283871924658	0.0
2.492500	1787824725681108224	4.894495756984541e-05	5.388458608624323e-05	-4.2821289241188315e-06	0.0	9.808283871924658	0.0
2.497500	1787824725684108288	4.894495756984541e-05	5.388458608624323e-05	-4.2821289241188315e-06	0.0	9.808283871924658	0.0
2.502500	1787824725690108416	4.894495756984541e-05	5.388458608624323e-05	-4.2821289241188315e-06	0.0	9.808283871924658	0.0
2.507500	1787824725696108032	4.894495756984541e-05	5.388458608624323e-05	-4.2821289241188315e-06	0.0	9.808283871924658	0.0
2.512500	1787824725702108160	4.894495756984541e-05	5.388458608624323e-05	-4.2821289241188315e-06	0.0	9.808283871924658	0.0
2.517500	1787824725705108224	4.894495756984541e-05	5.388458608624323e-05	-4.2821289241188315e-06	0.0	9.808283871924658	0.0
2.522500	1787824725711108096	4.894495756984541e-05	5.388458608624323e-05	-4.2821289241188315e-06	0.0	9.808283871924658	0.0
2.527500	1787824725714108160	4.894495756984541e-05	5.388458608624323e-05	-4.2821289241188315e-06	0.0	9.808283871924658	0.0
2.532500	1787824725720108288	4.894495756984541e-05	5.388458608624323e-05	-4.2821289241188315e-06	0.0	9.808283871924658	0.0
2.537500	1787824725726108416	4.894495756984541e-05	5.388458608624323e-05	-4.2821289241188315e-06	0.0	9.808283871924658	0.0
2.542500	1787824725732108032	4.894495756984541e-05	5.388458608624323e-05	-4.2821289241188315e-06	0.0	9.808283871924658	0.0
2.547500	1787824725735108096	4.894495756984541e-05	5.388458608624323e-05	-4.2821289241188315e-06	0.0	9.808283871924658	0.0
2.552500	1787824725741108224	4.894495756984541e-05	5.388458608624323e-05	-4.2821289241188315e-06	0.0	9.808283871924658	0.0
2.557500	1787824725744108288	4.894495756984541e-05	5.388458608624323e-05	-4.2821289241188315e-06	0.0	9.808283871924658	0.0
2.562500	1787824725750108160	4.894495756984541e-05	5.388458608624323e-05	-4.2821289241188315e-06	0.0	9.808283871924658	0.0
2.567500	1787824725756108288	4.894495756984541e-05	5.388458608624323e-05	-4.2821289241188315e-06	0.0	9.808283871924658	0.0
2.572500	1787824725759108352	4.894495756984541e-05	5.388458608624323e-05	-4.2821289241188315e-06	0.0	9.808283871924658	0.0
2.577500	1787824725765108224	4.894495756984541e-05	5.388458608624323e-05	-4.2821289241188315e-06	0.0	9.808283871924658	0.0
2.582500	1787824725771108096	4.894495756984541e-05	5.388458608624323e-05	-4.2821289241188315e-06	0.0	9.808283871924658	0.0
2.587500	1787824725774108160	4.894495756984541e-05	5.388458608624323e-05	-4.2821289241188315e-06	0.0	9.808283871924658	0.0
2.592500	1787824725780108288	4.894495756984541e-05	5.388458608624323e-05	-4.2821289241188315e-06	0.0	9.808283871924658	0.0
2.597500	1787824725786108160	4.894495756984541e-05	5.388458608624323e-05	-4.2821289241188315e-06	0.0	9.808283871924658	0.0
2.602500	1787824725792108288	4.894495756984541e-05	5.388458608624323e-05	-4.2821289241188315e-06	0.0	9.808283871924658	0.0
2.607500	1787824725795108352	4.894495756984541e-05	5.388458608624323e-05	-4.2821289241188315e-06	0.0	9.808283871924658	0.0
2.612500	1787824725801108224	4.894495756984541e-05	5.388458608624323e-05	-4.2821289241188315e-06	0.0	9.808283871924658	0.0
2.617500	1787824725804108032	4.894495756984541e-05	5.388458608624323e-05	-4.2821289241188315e-06	0.0	9.808283871924658	0.0
2.622500	1787824725810108160	4.894495756984541e-05	5.388458608624323e-05	-4.2821289241188315e-06	0.0	9.808283871924658	0.0
2.627500	1787824725816108288	4.894495756984541e-05	5.388458608624323e-05	-4.2821289241188315e-06	0.0	9.808283871924658	0.0
2.632500	1787824725819108352	4.894495756984541e-05	5.388458608624323e-05	-4.2821289241188315e-06	0.0	9.808283871924658	0.0
2.637500	1787824725825108224	4.894495756984541e-05	5.388458608624323e-05	-4.2821289241188315e-06	0.0	9.808283871924658	0.0
2.642500	1787824725831108096	4.894495756984541e-05	5.388458608624323e-05	-4.2821289241188315e-06	0.0	9.808283871924658	0.0
2.647500	1787824725834108160	4.894495756984541e-05	5.388458608624323e-05	-4.2821289241188315e-06	0.0	9.808283871924658	0.0
2.652500	1787824725840108032	4.894495756984541e-05	5.388458608624323e-05	-4.2821289241188315e-06	0.0	9.808283871924658	0.0
2.657500	1787824725846108160	4.894495756984541e-05	5.388458608624323e-05	-4.2821289241188315e-06	0.0	9.808283871924658	0.0
2.662500	1787824725852108288	4.894495756984541e-05	5.388458608624323e-05	-4.2821289241188315e-06	0.0	9.808283871924658	0.0
2.667500	1787824725855108352	4.894495756984541e-05	5.388458608624323e-05	-4.2821289241188315e-06	0.0	9.808283871924658	0.0
2.672500	1787824725861108224	4.894495756984541e-05	5.388458608624323e-05	-4.2821289241188315e-06	0.0	9.808283871924658	0.0
2.677500	1787824725864108288	4.894495756984541e-05	5.388458608624323e-05	-4.2821289241188315e-06	0.0	9.808283871924658	0.0
2.682500	1787824725870108160	4.894495756984541e-05	5.388458608624323e-05	-4.2821289241188315e-06	0.0	9.808283871924658	0.0
2.687500	1787824725876108288	4.894495756984541e-05	5.388458608624323e-05	-4.2821289241188315e-06	0.0	9.808283871924658	0.0
2.692500	1787824725882108160	4.894495756984541e-05	5.388458608624323e-05	-4.2821289241188315e-06	0.0	9.808283871924658	0.0
2.697500	1787824725885108224	4.894495756984541e-05	5.388458608624323e-05	-4.2821289241188315e-06	0.0	9.808283871924658	0.0
2.702500	1787824725891108352	4.894495756984541e-05	5.388458608624323e-05	-4.2821289241188315e-06	0.0	9.808283871924658	0.0
2.707500	1787824725894108416	4.894495756984541e-05	5.388458608624323e-05	-4.2821289241188315e-06	0.0	9.808283871924658	0.0
2.712500	1787824725900108032	4.894495756984541e-05	5.388458608624323e-05	-4.2821289241188315e-06	0.0	9.808283871924658	0.0
2.717500	1787824725906108160	4.894495756984541e-05	5.388458608624323e-05	-4.2821289241188315e-06	0.0	9.808283871924658	0.0
2.722500	1787824725912108288	4.894495756984541e-05	5.388458608624323e-05	-4.2821289241188315e-06	0.0	9.808283871924658	0.0
2.727500	1787824725915108096	4.894495756984541e-05	5.388458608624323e-05	-4.2821289241188315e-06	0.0	9.808283871924658	0.0
2.732500	1787824725921108224	4.894495756984541e-05	5.388458608624323e-05	-4.2821289241188315e-06	0.0	9.808283871924658	0.0
2.737500	1787824725924108288	4.894495756984541e-05	5.388458608624323e-05	-4.2821289241188315e-06	0.0	9.808283871924658	0.0
2.742500	1787824725930108416	4.894495756984541e-05	5.388458608624323e-05	-4.2821289241188315e-06	0.0	9.808283871924658	0.0
2.747500	1787824725936108032	4.894495756984541e-05	5.388458608624323e-05	-4.2821289241188315e-06	0.0	9.808283871924658	0.0
2.752500	1787824725942108160	4.894495756984541e-05	5.388458608624323e-05	-4.2821289241188315e-06	0.0	9.808283871924658	0.0
2.757500	1787824725945108224	4.894495756984541e-05	5.388458608624323e-05	-4.2821289241188315e-06	0.0	9.808283871924658	0.0
2.762500	1787824725951108096	4.894495756984541e-05	5.388458608624323e-05	-4.2821289241188315e-06	0.0	9.808283871924658	0.0
2.767500	1787824725954108160	4.894495756984541e-05	5.388458608624323e-05	-4.2821289241188315e-06	0.0	9.808283871924658	0.0
2.772500	1787824725960108288	4.894495756984541e-05	5.388458608624323e-05	-4.2821289241188315e-06	0.0	9.808283871924658	0.0
2.777500	1787824725966108416	4.894495756984541e-05	5.388458608624323e-05	-4.2821289241188315e-06	0.0	9.808283871924658	0.0
2.782500	1787824725972108032	4.894495756984541e-05	5.388458608624323e-05	-4.2821289241188315e-06	0.0	9.808283871924658	0.0
2.787500	1787824725975108096	4.894495756984541e-05	5.388458608624323e-05	-4.2821289241188315e-06	0.0	9.808283871924658	0.0
2.792500	1787824725981108224	4.894495756984541e-05	5.388458608624323e-05	-4.2821289241188315e-06	0.0	9.808283871924658	0.0
2.797500	1787824725984108288	4.894495756984541e-05	5.388458608624323e-05	-4.2821289241188315e-06	0.0	9.808283871924658	0.0
2.802500	1787824725990108160	4.894495756984541e-05	5.388458608624323e-05	-4.2821289241188315e-06	0.0	9.808283871924658	0.0
2.807500	1787824725996108288	4.894495756984541e-05	5.388458608624323e-05	-4.2821289241188315e-06	0.0	9.808283871924658	0.0
2.812500	1787824726002108160	4.894495756984541e-05	5.388458608624323e-05	-4.2821289241188315e-06	0.0	9.808283871924658	0.0
2.817500	1787824726005108224	4.894495756984541e-05	5.388458608624323e-05	-4.2821289241188315e-06	0.0	9.808283871924658	0.0
2.822500	1787824726011108096	4.894495756984541e-05	5.388458608624323e-05	-4.2821289241188315e-06	0.0	9.808283871924658	0.0
2.827500	1787824726014108160	4.894495756984541e-05	5.388458608624323e-05	-4.2821289241188315e-06	0.0	9.808283871924658	0.0
2.832500	1787824726020108288	4.894495756984541e-05	5.388458608624323e-05	-4.2821289241188315e-06	0.0	9.808283871924658	0.0
2.837500	1787824726026108160	4.894495756984541e-05	5.388458608624323e-05	-4.2821289241188315e-06	0.0	9.808283871924658	0.0
2.842500	1787824726029108224	4.894495756984541e-05	5.388458608624323e-05	-4.2821289241188315e-06	0.0	9.808283871924658	0.0
2.847500	1787824726035108096	4.894495756984541e-05	5.388458608624323e-05	-4.2821289241188315e-06	0.0	9.808283871924658	0.0
2.852500	1787824726041108224	4.894495756984541e-05	5.388458608624323e-05	-4.2821289241188315e-06	0.0	9.808283871924658	0.0
2.857500	1787824726044108032	4.894495756984541e-05	5.388458608624323e-05	-4.2821289241188315e-06	0.0	9.808283871924658	0.0
2.862500	1787824726050108160	4.894495756984541e-05	5.388458608624323e-05	-4.2821289241188315e-06	0.0	9.808283871924658	0.0
2.867500	1787824726056108288	4.894495756984541e-05	5.388458608624323e-05	-4.2821289241188315e-06	0.0	9.808283871924658	0.0
2.872500	1787824726062108160	4.894495756984541e-05	5.388458608624323e-05	-4.2821289241188315e-06	0.0	9.808283871924658	0.0
2.877500	1787824726065108224	4.894495756984541e-05	5.388458608624323e-05	-4.2821289241188315e-06	0.0	9.808283871924658	0.0
2.882500	1787824726071108096	4.894495756984541e-05	5.388458608624323e-05	-4.2821289241188315e-06	0.0	9.808283871924658	0.0
2.887500	1787824726074108160	4.894495756984541e-05	5.388458608624323e-05	-4.2821289241188315e-06	0.0	9.808283871924658	0.0
2.892500	1787824726080108288	4.894495756984541e-05	5.388458608624323e-05	-4.2821289241188315e-06	0.0	9.808283871924658	0.0
2.897500	1787824726086108160	4.894495756984541e-05	5.388458608624323e-05	-4.2821289241188315e-06	0.0	9.808283871924658	0.0
2.902500	1787824726089108224	4.894495756984541e-05	5.388458608624323e-05	-4.2821289241188315e-06	0.0	9.808283871924658	0.0
2.907500	1787824726095108352	4.894495756984541e-05	5.388458608624323e-05	-4.2821289241188315e-06	0.0	9.808283871924658	0.0
2.912500	1787824726101108224	4.894495756984541e-05	5.388458608624323e-05	-4.2821289241188315e-06	0.0	9.808283871924658	0.0
2.917500	1787824726104108032	4.894495756984541e-05	5.388458608624323e-05	-4.2821289241188315e-06	0.0	9.808283871924658	0.0
2.922500	1787824726110108160	4.894495756984541e-05	5.388458608624323e-05	-4.2821289241188315e-06	0.0	9.808283871924658	0.0
2.927500	1787824726116108288	4.894495756984541e-05	5.388458608624323e-05	-4.2821289241188315e-06	0.0	9.808283871924658	0.0
2.932500	1787824726122108160	4.894495756984541e-05	5.388458608624323e-05	-4.2821289241188315e-06	0.0	9.808283871924658	0.0
2.937500	1787824726125108224	4.894495756984541e-05	5.388458608624323e-05	-4.2821289241188315e-06	0.0	9.808283871924658	0.0
2.942500	1787824726131108352	4.894495756984541e-05	5.388458608624323e-05	-4.2821289241188315e-06	0.0	9.808283871924658	0.0
2.947500	1787824726134108416	4.894495756984541e-05	5.388458608624323e-05	-4.2821289241188315e-06	0.0	9.808283871924658	0.0
2.952500	1787824726140108032	4.894495756984541e-05	5.388458608624323e-05	-4.2821289241188315e-06	0.0	9.808283871924658	0.0
2.957500	1787824726146108160	4.894495756984541e-05	5.388458608624323e-05	-4.2821289241188315e-06	0.0	9.808283871924658	0.0
2.962500	1787824726152108288	4.894495756984541e-05	5.388458608624323e-05	-4.2821289241188315e-06	0.0	9.808283871924658	0.0
2.967500	1787824726155108096	4.894495756984541e-05	5.388458608624323e-05	-4.2821289241188315e-06	0.0	9.808283871924658	0.0
2.972500	1787824726161108224	4.894495756984541e-05	5.388458608624323e-05	-4.2821289241188315e-06	0.0	9.808283871924658	0.0
2.977500	1787824726164108288	4.894495756984541e-05	5.388458608624323e-05	-4.2821289241188315e-06	0.0	9.808283871924658	0.0
2.982500	1787824726170108416	4.894495756984541e-05	5.388458608624323e-05	-4.2821289241188315e-06	0.0	9.808283871924658	0.0
2.987500	1787824726176108032	4.894495756984541e-05	5.388458608624323e-05	-4.2821289241188315e-06	0.0	9.808283871924658	0.0
2.992500	1787824726182108160	4.894495756984541e-05	5.388458608624323e-05	-4.2821289241188315e-06	0.0	9.808283871924658	0.0
2.997500	1787824726185108224	4.894495756984541e-05	5.388458608624323e-05	-4.2821289241188315e-06	0.0	9.808283871924658	0.0
3.002500	1787824726191108352	4.894495756984541e-05	5.388458608624323e-05	-4.2821289241188315e-06	0.0	9.808283871924658	0.0
3.007500	1787824726194108160	4.894495756984541e-05	5.388458608624323e-05	-4.2821289241188315e-06	0.0	9.808283871924658	0.0
3.012500	1787824726200108288	4.894495756984541e-05	5.388458608624323e-05	-4.2821289241188315e-06	0.0	9.808283871924658	0.0
3.017500	1787824726206108160	4.894495756984541e-05	5.388458608624323e-05	-4.2821289241188315e-06	0.0	9.808283871924658	0.0
3.022500	1787824726212108032	4.894495756984541e-05	5.388458608624323e-05	-4.2821289241188315e-06	0.0	9.808283871924658	0.0
3.027500	1787824726215108096	4.894495756984541e-05	5.388458608624323e-05	-4.2821289241188315e-06	0.0	9.808283871924658	0.0
3.032500	1787824726221108224	4.894495756984541e-05	5.388458608624323e-05	-4.2821289241188315e-06	0.0	9.808283871924658	0.0
3.037500	1787824726224108288	4.894495756984541e-05	5.388458608624323e-05	-4.2821289241188315e-06	0.0	9.808283871924658	0.0
3.042500	1787824726230108160	4.894495756984541e-05	5.388458608624323e-05	-4.2821289241188315e-06	0.0	9.808283871924658	0.0
3.047500	1787824726236108288	4.894495756984541e-05	5.388458608624323e-05	-4.2821289241188315e-06	0.0	9.808283871924658	0.0
3.052500	1787824726242108160	4.894495756984541e-05	5.388458608624323e-05	-4.2821289241188315e-06	0.0	9.808283871924658	0.0
3.057500	1787824726245108224	4.894495756984541e-05	5.388458608624323e-05	-4.2821289241188315e-06	0.0	9.808283871924658	0.0
3.062500	1787824726251108096	4.894495756984541e-05	5.388458608624323e-05	-4.2821289241188315e-06	0.0	9.808283871924658	0.0
3.067500	1787824726254108160	4.894495756984541e-05	5.388458608624323e-05	-4.2821289241188315e-06	0.0	9.808283871924658	0.0
3.072500	1787824726260108288	4.894495756984541e-05	5.388458608624323e-05	-4.2821289241188315e-06	0.0	9.808283871924658	0.0
3.077500	1787824726266108160	4.894495756984541e-05	5.388458608624323e-05	-4.2821289241188315e-06	0.0	9.808283871924658	0.0
3.082500	1787824726272108288	4.894495756984541e-05	5.388458608624323e-05	-4.2821289241188315e-06	0.0	9.808283871924658	0.0
3.087500	1787824726275108096	4.894495756984541e-05	5.388458608624323e-05	-4.2821289241188315e-06	0.0	9.808283871924658	0.0
3.092500	1787824726281108224	4.894495756984541e-05	5.388458608624323e-05	-4.2821289241188315e-06	0.0	9.808283871924658	0.0
3.097500	1787824726284108288	4.894495756984541e-05	5.388458608624323e-05	-4.2821289241188315e-06	0.0	9.808283871924658	0.0
3.102500	1787824726290108160	4.894495756984541e-05	5.388458608624323e-05	-4.2821289241188315e-06	0.0	9.808283871924658	0.0
3.107500	1787824726296108288	4.894495756984541e-05	5.388458608624323e-05	-4.2821289241188315e-06	0.0	9.808283871924658	0.0
3.112500	1787824726302108160	4.894495756984541e-05	5.388458608624323e-05	-4.2821289241188315e-06	0.0	9.808283871924658	0.0
3.117500	1787824726305108224	4.894495756984541e-05	5.388458608624323e-05	-4.2821289241188315e-06	0.0	9.808283871924658	0.0
3.122500	1787824726311108096	4.894495756984541e-05	5.388458608624323e-05	-4.2821289241188315e-06	0.0	9.808283871924658	0.0
3.127500	1787824726314108160	4.894495756984541e-05	5.388458608624323e-05	-4.2821289241188315e-06	0.0	9.808283871924658	0.0
3.132500	1787824726320108288	4.894495756984541e-05	5.388458608624323e-05	-4.2821289241188315e-06	0.0	9.808283871924658	0.0
3.137500	1787824726326108160	4.894495756984541e-05	5.388458608624323e-05	-4.2821289241188315e-06	0.0	9.808283871924658	0.0
3.142500	1787824726332108288	4.894495756984541e-05	5.388458608624323e-05	-4.2821289241188315e-06	0.0	9.808283871924658	0.0
3.147500	1787824726335108352	4.894495756984541e-05	5.388458608624323e-05	-4.2821289241188315e-06	0.0	9.808283871924658	0.0
3.152500	1787824726341108224	4.894495756984541e-05	5.388458608624323e-05	-4.2821289241188315e-06	0.0	9.808283871924658	0.0
3.157500	1787824726344108032	4.894495756984541e-05	5.388458608624323e-05	-4.2821289241188315e-06	0.0	9.808283871924658	0.0
3.162500	1787824726350108160	4.894495756984541e-05	5.388458608624323e-05	-4.2821289241188315e-06	0.0	9.808283871924658	0.0
3.167500	1787824726356108288	4.894495756984541e-05	5.388458608624323e-05	-4.2821289241188315e-06	0.0	9.808283871924658	0.0
3.172500	1787824726362108160	4.894495756984541e-05	5.388458608624323e-05	-4.2821289241188315e-06	0.0	9.808283871924658	0.0
3.177500	1787824726365108224	4.894495756984541e-05	5.388458608624323e-05	-4.2821289241188315e-06	0.0	9.808283871924658	0.0
3.182500	1787824726371108352	4.894495756984541e-05	5.388458608624323e-05	-4.2821289241188315e-06	0.0	9.808283871924658	0.0
3.187500	1787824726374108416	4.894495756984541e-05	5.388458608624323e-05	-4.2821289241188315e-06	0.0	9.808283871924658	0.0
3.192500	1787824726380108032	4.894495756984541e-05	5.388458608624323e-05	-4.2821289241188315e-06	0.0	9.808283871924658	0.0
3.197500	1787824726386108160	4.894495756984541e-05	5.388458608624323e-05	-4.2821289241188315e-06	0.0	9.808283871924658	0.0
3.202500	1787824726392108288	4.894495756984541e-05	5.388458608624323e-05	-4.2821289241188315e-06	0.0	9.808283871924658	0.0
3.207500	1787824726395108096	4.894495756984541e-05	5.388458608624323e-05	-4.2821289241188315e-06	0.0	9.808283871924658	0.0
3.212500	1787824726401108224	4.894495756984541e-05	5.388458608624323e-05	-4.2821289241188315e-06	0.0	9.808283871924658	0.0
3.217500	1787824726404108288	4.894495756984541e-05	5.388458608624323e-05	-4.2821289241188315e-06	0.0	9.808283871924658	0.0
3.222500	1787824726410108160	4.894495756984541e-05	5.388458608624323e-05	-4.2821289241188315e-06	0.0	9.808283871924658	0.0
3.227500	1787824726416108032	4.894495756984541e-05	5.388458608624323e-05	-4.2821289241188315e-06	0.0	9.808283871924658	0.0
3.232500	1787824726422108160	4.894495756984541e-05	5.388458608624323e-05	-4.2821289241188315e-06	0.0	9.808283871924658	0.0
3.237500	1787824726425108224	4.894495756984541e-05	5.388458608624323e-05	-4.2821289241188315e-06	0.0	9.808283871924658	0.0
3.242500	1787824726431108352	4.894495756984541e-05	5.388458608624323e-05	-4.2821289241188315e-06	0.0	9.808283871924658	0.0
3.247500	1787824726434108160	4.894495756984541e-05	5.388458608624323e-05	-4.2821289241188315e-06	0.0	9.808283871924658	0.0
3.252500	1787824726440108288	4.894495756984541e-05	5.388458608624323e-05	-4.2821289241188315e-06	0.0	9.808283871924658	0.0
3.257500	1787824726446108160	4.894495756984541e-05	5.388458608624323e-05	-4.2821289241188315e-06	0.0	9.808283871924658	0.0
3.262500	1787824726452108032	4.894495756984541e-05	5.388458608624323e-05	-4.2821289241188315e-06	0.0	9.808283871924658	0.0
3.267500	1787824726455108096	4.894495756984541e-05	5.388458608624323e-05	-4.2821289241188315e-06	0.0	9.808283871924658	0.0
3.272500	1787824726461108224	4.894495756984541e-05	5.388458608624323e-05	-4.2821289241188315e-06	0.0	9.808283871924658	0.0
3.277500	1787824726464108288	4.894495756984541e-05	5.388458608624323e-05	-4.2821289241188315e-06	0.0	9.808283871924658	0.0
3.282500	1787824726470108160	4.894495756984541e-05	5.388458608624323e-05	-4.2821289241188315e-06	0.0	9.808283871924658	0.0
3.287500	1787824726476108288	4.894495756984541e-05	5.388458608624323e-05	-4.2821289241188315e-06	0.0	9.808283871924658	0.0
3.292500	1787824726482108160	4.894495756984541e-05	5.388458608624323e-05	-4.2821289241188315e-06	0.0	9.808283871924658	0.0
3.297500	1787824726485108224	4.894495756984541e-05	5.388458608624323e-05	-4.2821289241188315e-06	0.0	9.808283871924658	0.0
3.302500	1787824726491108096	4.894495756984541e-05	5.388458608624323e-05	-4.2821289241188315e-06	0.0	9.808283871924658	0.0
3.307500	1787824726494108160	4.894495756984541e-05	5.388458608624323e-05	-4.2821289241188315e-06	0.0	9.808283871924658	0.0
3.312500	1787824726500108288	4.894495756984541e-05	5.388458608624323e-05	-4.2821289241188315e-06	0.0	9.808283871924658	0.0
3.317500	1787824726506108160	4.894495756984541e-05	5.388458608624323e-05	-4.2821289241188315e-06	0.0	9.808283871924658	0.0
3.322500	1787824726512108032	4.894495756984541e-05	5.388458608624323e-05	-4.2821289241188315e-06	0.0	9.808283871924658	0.0
3.327500	1787824726515108096	4.894495756984541e-05	5.388458608624323e-05	-4.2821289241188315e-06	0.0	9.808283871924658	0.0
3.332500	1787824726521108224	4.894495756984541e-05	5.388458608624323e-05	-4.2821289241188315e-06	0.0	9.808283871924658	0.0
3.337500	1787824726524108288	4.894495756984541e-05	5.388458608624323e-05	-4.2821289241188315e-06	0.0	9.808283871924658	0.0
3.342500	1787824726530108160	4.894495756984541e-05	5.388458608624323e-05	-4.2821289241188315e-06	0.0	9.808283871924658	0.0
3.347500	1787824726536108288	4.894495756984541e-05	5.388458608624323e-05	-4.2821289241188315e-06	0.0	9.808283871924658	0.0
3.352500	1787824726542108416	4.894495756984541e-05	5.388458608624323e-05	-4.2821289241188315e-06	0.0	9.808283871924658	0.0
3.357500	1787824726545108224	4.894495756984541e-05	5.388458608624323e-05	-4.2821289241188315e-06	0.0	9.808283871924658	0.0
3.362500	1787824726551108096	4.894495756984541e-05	5.388458608624323e-05	-4.2821289241188315e-06	0.0	9.808283871924658	0.0
3.367500	1787824726554108160	4.894495756984541e-05	5.388458608624323e-05	-4.2821289241188315e-06	0.0	9.808283871924658	0.0
3.372500	1787824726560108288	4.894495756984541e-05	5.388458608624323e-05	-4.2821289241188315e-06	0.0	9.808283871924658	0.0
3.377500	1787824726566108160	4.894495756984541e-05	5.388458608624323e-05	-4.2821289241188315e-06	0.0	9.808283871924658	0.0
3.382500	1787824726572108288	4.894495756984541e-05	5.388458608624323e-05	-4.2821289241188315e-06	0.0	9.808283871924658	0.0
3.387500	1787824726575108352	4.894495756984541e-05	5.388458608624323e-05	-4.2821289241188315e-06	0.0	9.808283871924658	0.0
3.392500	1787824726581107968	4.894495756984541e-05	5.388458608624323e-05	-4.2821289241188315e-06	0.0	9.808283871924658	0.0
3.397500	1787824726584108032	4.894495756984541e-05	5.388458608624323e-05	-4.2821289241188315e-06	0.0	9.808283871924658	0.0
3.402500	1787824726590108160	4.894495756984541e-05	5.388458608624323e-05	-4.2821289241188315e-06	0.0	9.808283871924658	0.0
3.407500	1787824726596108288	4.894495756984541e-05	5.388458608624323e-05	-4.2821289241188315e-06	0.0	9.808283871924658	0.0
3.412500	1787824726602108160	4.894495756984541e-05	5.388458608624323e-05	-4.2821289241188315e-06	0.0	9.808283871924658	0.0
3.417500	1787824726605108224	4.894495756984541e-05	5.388458608624323e-05	-4.2821289241188315e-06	0.0	9.808283871924658	0.0
3.422500	1787824726611108352	4.894495756984541e-05	5.388458608624323e-05	-4.2821289241188315e-06	0.0	9.808283871924658	0.0
3.427500	1787824726614108416	4.894495756984541e-05	5.388458608624323e-05	-4.2821289241188315e-06	0.0	9.808283871924658	0.0
3.432500	1787824726620108032	4.894495756984541e-05	5.388458608624323e-05	-4.2821289241188315e-06	0.0	9.808283871924658	0.0
3.437500	1787824726626108160	4.894495756984541e-05	5.388458608624323e-05	-4.2821289241188315e-06	0.0	9.808283871924658	0.0
3.442500	1787824726632108288	4.894495756984541e-05	5.388458608624323e-05	-4.2821289241188315e-06	0.0	9.808283871924658	0.0
3.447500	1787824726635108352	4.894495756984541e-05	5.388458608624323e-05	-4.2821289241188315e-06	0.0	9.808283871924658	0.0
3.452500	1787824726641108224	4.894495756984541e-05	5.388458608624323e-05	-4.2821289241188315e-06	0.0	9.808283871924658	0.0
3.457500	1787824726644108288	4.894495756984541e-05	5.388458608624323e-05	-4.2821289241188315e-06	0.0	9.808283871924658	0.0
3.462500	1787824726650108160	4.894495756984541e-05	5.388458608624323e-05	-4.2821289241188315e-06	0.0	9.808283871924658	0.0
3.467500	1787824726656108032	4.894495756984541e-05	5.388458608624323e-05	-4.2821289241188315e-06	0.0	9.808283871924658	0.0
3.472500	1787824726662108160	4.894495756984541e-05	5.388458608624323e-05	-4.2821289241188315e-06	0.0	9.808283871924658	0.0
3.477500	1787824726665108224	4.894495756984541e-05	5.388458608624323e-05	-4.2821289241188315e-06	0.0	9.808283871924658	0.0
3.482500	1787824726671108352	4.894495756984541e-05	5.388458608624323e-05	-4.2821289241188315e-06	0.0	9.808283871924658	0.0
3.487500	1787824726674108160	4.894495756984541e-05	5.388458608624323e-05	-4.2821289241188315e-06	0.0	9.808283871924658	0.0
3.492500	1787824726680108288	4.894495756984541e-05	5.388458608624323e-05	-4.2821289241188315e-06	0.0	9.808283871924658	0.0
3.497500	1787824726686108160	4.894495756984541e-05	5.388458608624323e-05	-4.2821289241188315e-06	0.0	9.808283871924658	0.0
3.502500	1787824726692108032	4.894495756984541e-05	5.388458608624323e-05	-4.2821289241188315e-06	0.0	9.808283871924658	0.0
3.507500	1787824726695108096	4.894495756984541e-05	5.388458608624323e-05	-4.2821289241188315e-06	0.0	9.808283871924658	0.0
3.512500	1787824726701108224	4.894495756984541e-05	5.388458608624323e-05	-4.2821289241188315e-06	0.0	9.808283871924658	0.0
3.517500	1787824726704108288	4.894495756984541e-05	5.388458608624323e-05	-4.2821289241188315e-06	0.0	9.808283871924658	0.0
3.522500	1787824726710108160	4.894495756984541e-05	5.388458608624323e-05	-4.2821289241188315e-06	0.0	9.808283871924658	0.0
3.527500	1787824726716108288	4.894495756984541e-05	5.388458608624323e-05	-4.2821289241188315e-06	0.0	9.808283871924658	0.0
3.532500	1787824726722108160	4.894495756984541e-05	5.388458608624323e-05	-4.2821289241188315e-06	0.0	9.808283871924658	0.0
3.537500	1787824726725108224	4.894495756984541e-05	5.388458608624323e-05	-4.2821289241188315e-06	0.0	9.808283871924658	0.0
3.542500	1787824726731108096	4.894495756984541e-05	5.388458608624323e-05	-4.2821289241188315e-06	0.0	9.808283871924658	0.0
3.547500	1787824726734108160	4.894495756984541e-05	5.388458608624323e-05	-4.2821289241188315e-06	0.0	9.808283871924658	0.0
3.552500	1787824726740108288	4.894495756984541e-05	5.388458608624323e-05	-4.2821289241188315e-06	0.0	9.808283871924658	0.0
3.557500	1787824726746108416	4.894495756984541e-05	5.388458608624323e-05	-4.2821289241188315e-06	0.0	9.808283871924658	0.0
3.562500	1787824726752108032	4.894495756984541e-05	5.388458608624323e-05	-4.2821289241188315e-06	0.0	9.808283871924658	0.0
3.567500	1787824726755108096	4.894495756984541e-05	5.388458608624323e-05	-4.2821289241188315e-06	0.0	9.808283871924658	0.0
3.572500	1787824726761108224	4.894495756984541e-05	5.388458608624323e-05	-4.2821289241188315e-06	0.0	9.808283871924658	0.0
3.577500	1787824726764108288	4.894495756984541e-05	5.388458608624323e-05	-4.2821289241188315e-06	0.0	9.808283871924658	0.0
3.582500	1787824726770108160	4.894495756984541e-05	5.388458608624323e-05	-4.2821289241188315e-06	0.0	9.808283871924658	0.0
3.587500	1787824726776108288	4.894495756984541e-05	5.388458608624323e-05	-4.2821289241188315e-06	0.0	9.808283871924658	0.0
3.592500	1787824726782108416	4.894495756984541e-05	5.388458608624323e-05	-4.2821289241188315e-06	0.0	9.808283871924658	0.0
3.597500	1787824726785107968	4.894495756984541e-05	5.388458608624323e-05	-4.2821289241188315e-06	0.0	9.808283871924658	0.0
3.602500	1787824726791108096	4.894495756984541e-05	5.388458608624323e-05	-4.2821289241188315e-06	0.0	9.808283871924658	0.0
3.607500	1787824726794108160	4.894495756984541e-05	5.388458608624323e-05	-4.2821289241188315e-06	0.0	9.808283871924658	0.0
3.612500	1787824726800108288	4.894495756984541e-05	5.388458608624323e-05	-4.2821289241188315e-06	0.0	9.808283871924658	0.0
3.617500	1787824726806108160	4.894495756984541e-05	5.388458608624323e-05	-4.2821289241188315e-06	0.0	9.808283871924658	0.0
3.622500	1787824726812108288	4.894495756984541e-05	5.388458608624323e-05	-4.2821289241188315e-06	0.0	9.808283871924658	0.0
3.627500	1787824726815108352	4.894495756984541e-05	5.388458608624323e-05	-4.2821289241188315e-06	0.0	9.808283871924658	0.0
3.632500	1787824726821108224	4.894495756984541e-05	5.388458608624323e-05	-4.2821289241188315e-06	0.0	9.808283871924658	0.0
3.637500	1787824726824108032	4.894495756984541e-05	5.388458608624323e-05	-4.2821289241188315e-06	0.0	9.808283871924658	0.0
3.642500	1787824726830108160	4.894495756984541e-05	5.388458608624323e-05	-4.2821289241188315e-06	0.0	9.808283871924658	0.0
3.647500	1787824726836108288	4.894495756984541e-05	5.388458608624323e-05	-4.2821289241188315e-06	0.0	9.808283871924658	0.0
3.652500	1787824726842108160	4.894495756984541e-05	5.388458608624323e-05	-4.2821289241188315e-06	0.0	9.808283871924658	0.0
3.657500	1787824726845108224	4.894495756984541e-05	5.388458608624323e-05	-4.2821289241188315e-06	0.0	9.808283871924658	0.0
3.662500	1787824726851108352	4.894495756984541e-05	5.388458608624323e-05	-4.2821289241188315e-06	0.0	9.808283871924658	0.0
3.667500	1787824726854108160	4.894495756984541e-05	5.388458608624323e-05	-4.2821289241188315e-06	0.0	9.808283871924658	0.0
3.672500	1787824726860108032	4.894495756984541e-05	5.388458608624323e-05	-4.2821289241188315e-06	0.0	9.808283871924658	0.0
3.677500	1787824726866108160	4.894495756984541e-05	5.388458608624323e-05	-4.2821289241188315e-06	0.0	9.808283871924658	0.0
3.682500	1787824726872108288	4.894495756984541e-05	5.388458608624323e-05	-4.2821289241188315e-06	0.0	9.808283871924658	0.0
3.687500	1787824726875108352	4.894495756984541e-05	5.388458608624323e-05	-4.2821289241188315e-06	0.0	9.808283871924658	0.0
3.692500	1787824726881108224	4.894495756984541e-05	5.388458608624323e-05	-4.2821289241188315e-06	0.0	9.808283871924658	0.0
3.697500	1787824726884108288	4.894495756984541e-05	5.388458608624323e-05	-4.2821289241188315e-06	0.0	9.808283871924658	0.0
3.702500	1787824726890108160	4.894495756984541e-05	5.388458608624323e-05	-4.2821289241188315e-06	0.0	9.808283871924658	0.0
3.707500	1787824726896108032	4.894495756984541e-05	5.388458608624323e-05	-4.2821289241188315e-06	0.0	9.808283871924658	0.0
3.712500	1787824726902108160	4.894495756984541e-05	5.388458608624323e-05	-4.2821289241188315e-06	0.0	9.808283871924658	0.0
3.717500	1787824726905108224	4.894495756984541e-05	5.388458608624323e-05	-4.2821289241188315e-06	0.0	9.808283871924658	0.0
3.722500	1787824726911108352	4.894495756984541e-05	5.388458608624323e-05	-4.2821289241188315e-06	0.0	9.808283871924658	0.0
3.727500	1787824726914108160	4.894495756984541e-05	5.388458608624323e-05	-4.2821289241188315e-06	0.0	9.808283871924658	0.0
3.732500	1787824726920108288	4.894495756984541e-05	5.388458608624323e-05	-4.2821289241188315e-06	0.0	9.808283871924658	0.0
3.737500	1787824726926108160	4.894495756984541e-05	5.388458608624323e-05	-4.2821289241188315e-06	0.0	9.808283871924658	0.0
3.742500	1787824726932108288	4.894495756984541e-05	5.388458608624323e-05	-4.2821289241188315e-06	0.0	9.808283871924658	0.0
3.747500	1787824726935108096	4.894495756984541e-05	5.388458608624323e-05	-4.2821289241188315e-06	0.0	9.808283871924658	0.0
3.752500	1787824726941108224	4.894495756984541e-05	5.388458608624323e-05	-4.2821289241188315e-06	0.0	9.808283871924658	0.0
3.757500	1787824726944108288	4.894495756984541e-05	5.388458608624323e-05	-4.2821289241188315e-06	0.0	9.808283871924658	0.0
3.762500	1787824726950108416	4.894495756984541e-05	5.388458608624323e-05	-4.2821289241188315e-06	0.0	9.808283871924658	0.0
3.767500	1787824726956108032	4.894495756984541e-05	5.388458608624323e-05	-4.2821289241188315e-06	0.0	9.808283871924658	0.0
3.772500	1787824726962108160	4.894495756984541e-05	5.388458608624323e-05	-4.2821289241188315e-06	0.0	9.808283871924658	0.0
3.777500	1787824726965108224	4.894495756984541e-05	5.388458608624323e-05	-4.2821289241188315e-06	0.0	9.808283871924658	0.0
3.782500	1787824726971108096	4.894495756984541e-05	5.388458608624323e-05	-4.2821289241188315e-06	0.0	9.808283871924658	0.0
3.787500	1787824726974108160	4.894495756984541e-05	5.388458608624323e-05	-4.2821289241188315e-06	0.0	9.808283871924658	0.0
3.792500	1787824726980108288	4.894495756984541e-05	5.388458608624323e-05	-4.2821289241188315e-06	0.0	9.808283871924658	0.0
3.797500	1787824726986108416	4.894495756984541e-05	5.388458608624323e-05	-4.2821289241188315e-06	0.0	9.808283871924658	0.0
3.802500	1787824726992108032	4.894495756984541e-05	5.388458608624323e-05	-4.2821289241188315e-06	0.0	9.808283871924658	0.0
3.807500	1787824726995108096	4.894495756984541e-05	5.388458608624323e-05	-4.2821289241188315e-06	0.0	9.808283871924658	0.0
3.812500	1787824727001108224	4.894495756984541e-05	5.388458608624323e-05	-4.2821289241188315e-06	0.0	9.808283871924658	0.0
3.817500	1787824727004108288	4.894495756984541e-05	5.388458608624323e-05	-4.2821289241188315e-06	0.0	9.808283871924658	0.0
3.822500	1787824727010108160	4.894495756984541e-05	5.388458608624323e-05	-4.2821289241188315e-06	0.0	9.808283871924658	0.0
3.827500	1787824727016108288	4.894495756984541e-05	5.388458608624323e-05	-4.2821289241188315e-06	0.0	9.808283871924658	0.0
3.832500	1787824727022108416	4.894495756984541e-05	5.388458608624323e-05	-4.2821289241188315e-06	0.0	9.808283871924658	0.0
3.837500	1787824727025108224	4.894495756984541e-05	5.388458608624323e-05	-4.2821289241188315e-06	0.0	9.808283871924658	0.0
3.842500	1787824727031108096	4.894495756984541e-05	5.388458608624323e-05	-4.2821289241188315e-06	0.0	9.808283871924658	0.0
3.847500	1787824727034108160	4.894495756984541e-05	5.388458608624323e-05	-4.2821289241188315e-06	0.0	9.808283871924658	0.0
3.852500	1787824727040108288	4.894495756984541e-05	5.388458608624323e-05	-4.2821289241188315e-06	0.0	9.808283871924658	0.0
3.857500	1787824727046108160	4.894495756984541e-05	5.388458608624323e-05	-4.2821289241188315e-06	0.0	9.808283871924658	0.0
3.862500	1787824727052108288	4.894495756984541e-05	5.388458608624323e-05	-4.2821289241188315e-06	0.0	9.808283871924658	0.0
3.867500	1787824727055108352	4.894495756984541e-05	5.388458608624323e-05	-4.2821289241188315e-06	0.0	9.808283871924658	0.0
3.872500	1787824727061108224	4.894495756984541e-05	5.388458608624323e-05	-4.2821289241188315e-06	0.0	9.808283871924658	0.0
3.877500	1787824727064108032	4.894495756984541e-05	5.388458608624323e-05	-4.2821289241188315e-06	0.0	9.808283871924658	0.0
3.882500	1787824727070108160	4.894495756984541e-05	5.388458608624323e-05	-4.2821289241188315e-06	0.0	9.808283871924658	0.0
3.887500	1787824727076108288	4.894495756984541e-05	5.388458608624323e-05	-4.2821289241188315e-06	0.0	9.808283871924658	0.0
3.892500	1787824727082108160	4.894495756984541e-05	5.388458608624323e-05	-4.2821289241188315e-06	0.0	9.808283871924658	0.0
3.897500	1787824727085108224	4.894495756984541e-05	5.388458608624323e-05	-4.2821289241188315e-06	0.0	9.808283871924658	0.0
3.902500	1787824727091108352	4.894495756984541e-05	5.388458608624323e-05	-4.2821289241188315e-06	0.0	9.808283871924658	0.0
3.907500	1787824727094108160	4.894495756984541e-05	5.388458608624323e-05	-4.2821289241188315e-06	0.0	9.808283871924658	0.0
3.912500	1787824727100108032	4.894495756984541e-05	5.388458608624323e-05	-4.2821289241188315e-06	0.0	9.808283871924658	0.0
3.917500	1787824727106108160	4.894495756984541e-05	5.388458608624323e-05	-4.2821289241188315e-06	0.0	9.808283871924658	0.0
3.922500	1787824727112108288	4.894495756984541e-05	5.388458608624323e-05	-4.2821289241188315e-06	0.0	9.808283871924658	0.0
3.927500	1787824727115108352	4.894495756984541e-05	5.388458608624323e-05	-4.2821289241188315e-06	0.0	9.808283871924658	0.0
3.932500	1787824727121108224	4.894495756984541e-05	5.388458608624323e-05	-4.2821289241188315e-06	0.0	9.808283871924658	0.0
3.937500	1787824727124108288	4.894495756984541e-05	5.388458608624323e-05	-4.2821289241188315e-06	0.0	9.808283871924658	0.0
3.942500	1787824727130108160	4.894495756984541e-05	5.388458608624323e-05	-4.2821289241188315e-06	0.0	9.808283871924658	0.0
3.947500	1787824727136108288	4.894495756984541e-05	5.388458608624323e-05	-4.2821289241188315e-06	0.0	9.808283871924658	0.0
3.952500	1787824727142108160	4.894495756984541e-05	5.388458608624323e-05	-4.2821289241188315e-06	0.0	9.808283871924658	0.0
3.957500	1787824727145108224	4.894495756984541e-05	5.388458608624323e-05	-4.2821289241188315e-06	0.0	9.808283871924658	0.0
3.962500	1787824727151108352	4.894495756984541e-05	5.388458608624323e-05	-4.2821289241188315e-06	0.0	9.808283871924658	0.0
3.967500	1787824727154108160	4.894495756984541e-05	5.388458608624323e-05	-4.2821289241188315e-06	0.0	9.808283871924658	0.0
3.972500	1787824727160108032	4.894495756984541e-05	5.388458608624323e-05	-4.2821289241188315e-06	0.0	9.808283871924658	0.0
3.977500	1787824727166108160	4.894495756984541e-05	5.388458608624323e-05	-4.2821289241188315e-06	0.0	9.808283871924658	0.0
3.982500	1787824727172108288	4.894495756984541e-05	5.388458608624323e-05	-4.2821289241188315e-06	0.0	9.808283871924658	0.0
3.987500	1787824727175108096	4.894495756984541e-05	5.388458608624323e-05	-4.2821289241188315e-06	0.0	9.808283871924658	0.0
3.992500	1787824727181108224	4.894495756984541e-05	5.388458608624323e-05	-4.2821289241188315e-06	0.0	9.808283871924658	0.0
3.997500	1787824727184108288	4.894495756984541e-05	5.388458608624323e-05	-4.2821289241188315e-06	0.0	9.808283871924658	0.0
4.002500	1787824727190108416	4.894495756984541e-05	5.388458608624323e-05	-4.2821289241188315e-06	0.0	9.808283871924658	0.0
4.007500	1787824727196108032	4.894495756984541e-05	5.388458608624323e-05	-4.2821289241188315e-06	0.0	9.808283871924658	0.0
4.012500	1787824727202108160	4.894495756984541e-05	5.388458608624323e-05	-4.2821289241188315e-06	0.0	9.808283871924658	0.0
4.017500	1787824727205108224	4.894495756984541e-05	5.388458608624323e-05	-4.2821289241188315e-06	0.0	9.808283871924658	0.0
4.022500	1787824727211108096	4.894495756984541e-05	5.388458608624323e-05	-4.2821289241188315e-06	0.0	9.808283871924658	0.0
4.027500	1787824727217108224	4.894495756984541e-05	5.388458608624323e-05	-4.2821289241188315e-06	0.0	9.808283871924658	0.0
4.032500	1787824727220108288	4.894495756984541e-05	5.388458608624323e-05	-4.2821289241188315e-06	0.0	9.808283871924658	0.0
4.037500	1787824727226108416	4.894495756984541e-05	5.388458608624323e-05	-4.2821289241188315e-06	0.0	9.808283871924658	0.0
4.042500	1787824727232108032	4.894495756984541e-05	5.388458608624323e-05	-4.2821289241188315e-06	0.0	9.808283871924658	0.0
4.047500	1787824727235108096	4.894495756984541e-05	5.388458608624323e-05	-4.2821289241188315e-06	0.0	9.808283871924658	0.0
4.052500	1787824727241108224	4.894495756984541e-05	5.388458608624323e-05	-4.2821289241188315e-06	0.0	9.808283871924658	0.0
4.057500	1787824727244108288	4.894495756984541e-05	5.388458608624323e-05	-4.2821289241188315e-06	0.0	9.808283871924658	0.0
4.062500	1787824727250108160	4.894495756984541e-05	5.388458608624323e-05	-4.2821289241188315e-06	0.0	9.808283871924658	0.0
4.067500	1787824727256108288	4.894495756984541e-05	5.388458608624323e-05	-4.2821289241188315e-06	0.0	9.808283871924658	0.0
4.072500	1787824727262108160	4.894495756984541e-05	5.388458608624323e-05	-4.2821289241188315e-06	0.0	9.808283871924658	0.0
4.077500	1787824727265108224	4.894495756984541e-05	5.388458608624323e-05	-4.2821289241188315e-06	0.0	9.808283871924658	0.0
4.082500	1787824727271108096	4.894495756984541e-05	5.388458608624323e-05	-4.2821289241188315e-06	0.0	9.808283871924658	0.0
4.087500	1787824727274108160	4.894495756984541e-05	5.388458608624323e-05	-4.2821289241188315e-06	0.0	9.808283871924658	0.0
4.092500	1787824727280108288	4.894495756984541e-05	5.388458608624323e-05	-4.2821289241188315e-06	0.0	9.808283871924658	0.0
4.097500	1787824727286108160	4.894495756984541e-05	5.388458608624323e-05	-4.2821289241188315e-06	0.0	9.808283871924658	0.0
4.102500	1787824727292108288	4.894495756984541e-05	5.388458608624323e-05	-4.2821289241188315e-06	0.0	9.808283871924658	0.0
4.107500	1787824727295108352	4.894495756984541e-05	5.388458608624323e-05	-4.2821289241188315e-06	0.0	9.808283871924658	0.0
4.112500	1787824727301108224	4.894495756984541e-05	5.388458608624323e-05	-4.2821289241188315e-06	0.0	9.808283871924658	0.0
4.117500	1787824727307108096	4.894495756984541e-05	5.388458608624323e-05	-4.2821289241188315e-06	0.0	9.808283871924658	0.0
4.122500	1787824727310108160	4.894495756984541e-05	5.388458608624323e-05	-4.2821289241188315e-06	0.0	9.808283871924658	0.0
4.127500	1787824727316108288	4.894495756984541e-05	5.388458608624323e-05	-4.2821289241188315e-06	0.0	9.808283871924658	0.0
4.132500	1787824727322108160	4.894495756984541e-05	5.388458608624323e-05	-4.2821289241188315e-06	0.0	9.808283871924658	0.0
4.137500	1787824727325108224	4.894495756984541e-05	5.388458608624323e-05	-4.2821289241188315e-06	0.0	9.808283871924658	0.0
4.142500	1787824727331108096	4.894495756984541e-05	5.388458608624323e-05	-4.2821289241188315e-06	0.0	9.808283871924658	0.0
4.147500	1787824727337108224	4.894495756984541e-05	5.388458608624323e-05	-4.2821289241188315e-06	0.0	9.808283871924658	0.0
4.152500	1787824727340108032	4.894495756984541e-05	5.388458608624323e-05	-4.2821289241188315e-06	0.0	9.808283871924658	0.0
4.157500	1787824727346108160	4.894495756984541e-05	5.388458608624323e-05	-4.2821289241188315e-06	0.0	9.808283871924658	0.0
4.162500	1787824727352108288	4.894495756984541e-05	5.388458608624323e-05	-4.2821289241188315e-06	0.0	9.808283871924658	0.0
4.167500	1787824727355108352	4.894495756984541e-05	5.388458608624323e-05	-4.2821289241188315e-06	0.0	9.808283871924658	0.0
4.172500	1787824727361108224	4.894495756984541e-05	5.388458608624323e-05	-4.2821289241188315e-06	0.0	9.808283871924658	0.0
4.177500	1787824727364108288	4.894495756984541e-05	5.388458608624323e-05	-4.2821289241188315e-06	0.0	9.808283871924658	0.0
4.182500	1787824727370108160	4.894495756984541e-05	5.388458608624323e-05	-4.2821289241188315e-06	0.0	9.808283871924658	0.0
4.187500	1787824727376108288	4.894495756984541e-05	5.388458608624323e-05	-4.2821289241188315e-06	0.0	9.808283871924658	0.0
4.192500	1787824727382108160	4.894495756984541e-05	5.388458608624323e-05	-4.2821289241188315e-06	0.0	9.808283871924658	0.0
4.197500	1787824727385108224	4.894495756984541e-05	5.388458608624323e-05	-4.2821289241188315e-06	0.0	9.808283871924658	0.0
4.202500	1787824727391108352	4.894495756984541e-05	5.388458608624323e-05	-4.2821289241188315e-06	0.0	9.808283871924658	0.0
4.207500	1787824727397108224	4.894495756984541e-05	5.388458608624323e-05	-4.2821289241188315e-06	0.0	9.808283871924658	0.0
4.212500	1787824727400108032	4.894495756984541e-05	5.388458608624323e-05	-4.2821289241188315e-06	0.0	9.808283871924658	0.0
4.217500	1787824727406108160	4.894495756984541e-05	5.388458608624323e-05	-4.2821289241188315e-06	0.0	9.808283871924658	0.0
4.222500	1787824727412108288	4.894495756984541e-05	5.388458608624323e-05	-4.2821289241188315e-06	0.0	9.808283871924658	0.0
4.227500	1787824727415108096	4.894495756984541e-05	5.388458608624323e-05	-4.2821289241188315e-06	0.0	9.808283871924658	0.0
4.232500	1787824727421108224	4.894495756984541e-05	5.388458608624323e-05	-4.2821289241188315e-06	0.0	9.808283871924658	0.0
4.237500	1787824727427108352	4.894495756984541e-05	5.388458608624323e-05	-4.2821289241188315e-06	0.0	9.808283871924658	0.0
4.242500	1787824727430108416	4.894495756984541e-05	5.388458608624323e-05	-4.2821289241188315e-06	0.0	9.808283871924658	0.0
4.247500	1787824727436108032	4.894495756984541e-05	5.388458608624323e-05	-4.2821289241188315e-06	0.0	9.808283871924658	0.0
4.252500	1787824727442108160	4.894495756984541e-05	5.388458608624323e-05	-4.2821289241188315e-06	0.0	9.808283871924658	0.0
4.257500	1787824727445108224	4.894495756984541e-05	5.388458608624323e-05	-4.2821289241188315e-06	0.0	9.808283871924658	0.0
4.262500	1787824727451108096	4.894495756984541e-05	5.388458608624323e-05	-4.2821289241188315e-06	0.0	9.808283871924658	0.0
4.267500	1787824727454108160	4.894495756984541e-05	5.388458608624323e-05	-4.2821289241188315e-06	0.0	9.808283871924658	0.0
4.272500	1787824727460108288	4.894495756984541e-05	5.388458608624323e-05	-4.2821289241188315e-06	0.0	9.808283871924658	0.0
4.277500	1787824727466108416	4.894495756984541e-05	5.388458608624323e-05	-4.2821289241188315e-06	0.0	9.808283871924658	0.0
4.282500	1787824727472108032	4.894495756984541e-05	5.388458608624323e-05	-4.2821289241188315e-06	0.0	9.808283871924658	0.0
4.287500	1787824727475108096	4.894495756984541e-05	5.388458608624323e-05	-4.2821289241188315e-06	0.0	9.808283871924658	0.0
4.292500	1787824727481108224	4.894495756984541e-05	5.388458608624323e-05	-4.2821289241188315e-06	0.0	9.808283871924658	0.0
4.297500	1787824727484108288	4.894495756984541e-05	5.388458608624323e-05	-4.2821289241188315e-06	0.0	9.808283871924658	0.0
4.302500	1787824727490108160	4.894495756984541e-05	5.388458608624323e-05	-4.2821289241188315e-06	0.0	9.808283871924658	0.0
4.307500	1787824727496108288	4.894495756984541e-05	5.388458608624323e-05	-4.2821289241188315e-06	0.0	9.808283871924658	0.0
4.312500	1787824727502108160	4.894495756984541e-05	5.388458608624323e-05	-4.2821289241188315e-06	0.0	9.808283871924658	0.0
4.317500	1787824727505108224	4.894495756984541e-05	5.388458608624323e-05	-4.2821289241188315e-06	0.0	9.808283871924658	0.0
4.322500	1787824727511108096	4.894495756984541e-05	5.388458608624323e-05	-4.2821289241188315e-06	0.0	9.808283871924658	0.0
4.327500	1787824727517108224	4.894495756984541e-05	5.388458608624323e-05	-4.2821289241188315e-06	0.0	9.808283871924658	0.0
4.332500	1787824727520108288	4.894495756984541e-05	5.388458608624323e-05	-4.2821289241188315e-06	0.0	9.808283871924658	0.0
4.337500	1787824727526108160	4.894495756984541e-05	5.388458608624323e-05	-4.2821289241188315e-06	0.0	9.808283871924658	0.0
4.342500	1787824727532108288	4.894495756984541e-05	5.388458608624323e-05	-4.2821289241188315e-06	0.0	9.808283871924658	0.0
4.347500	1787824727535108096	4.894495756984541e-05	5.388458608624323e-05	-4.2821289241188315e-06	0.0	9.808283871924658	0.0
4.352500	1787824727541108224	4.894495756984541e-05	5.388458608624323e-05	-4.2821289241188315e-06	0.0	9.808283871924658	0.0
4.357500	1787824727547108096	4.894495756984541e-05	5.388458608624323e-05	-4.2821289241188315e-06	0.0	9.808283871924658	0.0
4.362500	1787824727550108160	4.894495756984541e-05	5.388458608624323e-05	-4.2821289241188315e-06	0.0	9.808283871924658	0.0
4.367500	1787824727556108288	4.894495756984541e-05	5.388458608624323e-05	-4.2821289241188315e-06	0.0	9.808283871924658	0.0
4.372500	1787824727562108160	4.894495756984541e-05	5.388458608624323e-05	-4.2821289241188315e-06	0.0	9.808283871924658	0.0
4.377500	1787824727565108224	4.894495756984541e-05	5.388458608624323e-05	-4.2821289241188315e-06	0.0	9.808283871924658	0.0
4.382500	1787824727571108096	4.894495756984541e-05	5.388458608624323e-05	-4.2821289241188315e-06	0.0	9.808283871924658	0.0
4.387500	1787824727574108160	4.894495756984541e-05	5.388458608624323e-05	-4.2821289241188315e-06	0.0	9.808283871924658	0.0
4.392500	1787824727580108288	4.894495756984541e-05	5.388458608624323e-05	-4.2821289241188315e-06	0.0	9.808283871924658	0.0
4.397500	1787824727586108160	4.894495756984541e-05	5.388458608624323e-05	-4.2821289241188315e-06	0.0	9.808283871924658	0.0
4.402500	1787824727592108288	4.894495756984541e-05	5.388458608624323e-05	-4.2821289241188315e-06	0.0	9.808283871924658	0.0
4.407500	1787824727595108352	4.894495756984541e-05	5.388458608624323e-05	-4.2821289241188315e-06	0.0	9.808283871924658	0.0
4.412500	1787824727601108224	4.894495756984541e-05	5.388458608624323e-05	-4.2821289241188315e-06	0.0	9.808283871924658	0.0
4.417500	1787824727604108032	4.894495756984541e-05	5.388458608624323e-05	-4.2821289241188315e-06	0.0	9.808283871924658	0.0
4.422500	1787824727610108160	4.894495756984541e-05	5.388458608624323e-05	-4.2821289241188315e-06	0.0	9.808283871924658	0.0
4.427500	1787824727616108288	4.894495756984541e-05	5.388458608624323e-05	-4.2821289241188315e-06	0.0	9.808283871924658	0.0
4.432500	1787824727622108160	4.894495756984541e-05	5.388458608624323e-05	-4.2821289241188315e-06	0.0	9.808283871924658	0.0
4.437500	1787824727625108224	4.894495756984541e-05	5.388458608624323e-05	-4.2821289241188315e-06	0.0	9.808283871924658	0.0
4.442500	1787824727631108352	4.894495756984541e-05	5.388458608624323e-05	-4.2821289241188315e-06	0.0	9.808283871924658	0.0
4.447500	1787824727637107968	4.894495756984541e-05	5.388458608624323e-05	-4.2821289241188315e-06	0.0	9.808283871924658	0.0
4.452500	1787824727640108032	4.894495756984541e-05	5.388458608624323e-05	-4.2821289241188315e-06	0.0	9.808283871924658	0.0
4.457500	1787824727646108160	4.894495756984541e-05	5.388458608624323e-05	-4.2821289241188315e-06	0.0	9.808283871924658	0.0
4.462500	1787824727652108288	4.894495756984541e-05	5.388458608624323e-05	-4.2821289241188315e-06	0.0	9.808283871924658	0.0
4.467500	1787824727655108096	4.894495756984541e-05	5.388458608624323e-05	-4.2821289241188315e-06	0.0	9.808283871924658	0.0
4.472500	1787824727661108224	4.894495756984541e-05	5.388458608624323e-05	-4.2821289241188315e-06	0.0	9.808283871924658	0.0
4.477500	1787824727667108352	4.894495756984541e-05	5.388458608624323e-05	-4.2821289241188315e-06	0.0	9.808283871924658	0.0
4.482500	1787824727670108416	4.894495756984541e-05	5.388458608624323e-05	-4.2821289241188315e-06	0.0	9.808283871924658	0.0
4.487500	1787824727676108032	4.894495756984541e-05	5.388458608624323e-05	-4.2821289241188315e-06	0.0	9.808283871924658	0.0
4.492500	1787824727682108160	4.894495756984541e-05	5.388458608624323e-05	-4.2821289241188315e-06	0.0	9.808283871924658	0.0
4.497500	1787824727685108224	4.894495756984541e-05	5.388458608624323e-05	-4.2821289241188315e-06	0.0	9.808283871924658	0.0
4.502500	1787824727691108352	4.894495756984541e-05	5.388458608624323e-05	-4.2821289241188315e-06	0.0	9.808283871924658	0.0
4.507500	1787824727694108160	4.894495756984541e-05	5.388458608624323e-05	-4.2821289241188315e-06	0.0	9.808283871924658	0.0
4.512500	1787824727700108288	4.894495756984541e-05	5.388458608624323e-05	-4.2821289241188315e-06	0.0	9.808283871924658	0.0
4.517500	1787824727706108160	4.894495756984541e-05	5.388458608624323e-05	-4.2821289241188315e-06	0.0	9.808283871924658	0.0
4.522500	1787824727712108032	4.894495756984541e-05	5.388458608624323e-05	-4.2821289241188315e-06	0.0	9.808283871924658	0.0
4.527500	1787824727715108096	4.894495756984541e-05	5.388458608624323e-05	-4.2821289241188315e-06	0.0	9.808283871924658	0.0
4.532500	1787824727721108224	4.894495756984541e-05	5.388458608624323e-05	-4.2821289241188315e-06	0.0	9.808283871924658	0.0
4.537500	1787824727727108352	4.894495756984541e-05	5.388458608624323e-05	-4.2821289241188315e-06	0.0	9.808283871924658	0.0
4.542500	1787824727730108160	4.894495756984541e-05	5.388458608624323e-05	-4.2821289241188315e-06	0.0	9.808283871924658	0.0
4.547500	1787824727736108288	4.894495756984541e-05	5.388458608624323e-05	-4.2821289241188315e-06	0.0	9.808283871924658	0.0
4.552500	1787824727742108160	4.894495756984541e-05	5.388458608624323e-05	-4.2821289241188315e-06	0.0	9.808283871924658	0.0
4.557500	1787824727745108224	4.894495756984541e-05	5.388458608624323e-05	-4.2821289241188315e-06	0.0	9.808283871924658	0.0
4.562500	1787824727751108096	4.894495756984541e-05	5.388458608624323e-05	-4.2821289241188315e-06	0.0	9.808283871924658	0.0
4.567500	1787824727757108224	4.894495756984541e-05	5.388458608624323e-05	-4.2821289241188315e-06	0.0	9.808283871924658	0.0
4.572500	1787824727760108288	4.894495756984541e-05	5.388458608624323e-05	-4.2821289241188315e-06	0.0	9.808283871924658	0.0
4.577500	1787824727766108160	4.894495756984541e-05	5.388458608624323e-05	-4.2821289241188315e-06	0.0	9.808283871924658	0.0
4.582500	1787824727772108288	4.894495756984541e-05	5.388458608624323e-05	-4.2821289241188315e-06	0.0	9.808283871924658	0.0
4.587500	1787824727775108096	4.894495756984541e-05	5.388458608624323e-05	-4.2821289241188315e-06	0.0	9.808283871924658	0.0
4.592500	1787824727781108224	4.894495756984541e-05	5.388458608624323e-05	-4.2821289241188315e-06	0.0	9.808283871924658	0.0
4.597500	1787824727784108288	4.894495756984541e-05	5.388458608624323e-05	-4.2821289241188315e-06	0.0	9.808283871924658	0.0
4.602500	1787824727790108160	4.894495756984541e-05	5.388458608624323e-05	-4.2821289241188315e-06	0.0	9.808283871924658	0.0
4.607500	1787824727796108288	4.894495756984541e-05	5.388458608624323e-05	-4.2821289241188315e-06	0.0	9.808283871924658	0.0
4.612500	1787824727802108160	4.894495756984541e-05	5.388458608624323e-05	-4.2821289241188315e-06	0.0	9.808283871924658	0.0
4.617500	1787824727805108224	4.894495756984541e-05	5.388458608624323e-05	-4.2821289241188315e-06	0.0	9.808283871924658	0.0
4.622500	1787824727811108096	4.894495756984541e-05	5.388458608624323e-05	-4.2821289241188315e-06	0.0	9.808283871924658	0.0
4.627500	1787824727814108160	4.894495756984541e-05	5.388458608624323e-05	-4.2821289241188315e-06	0.0	9.808283871924658	0.0
4.632500	1787824727820108288	4.894495756984541e-05	5.388458608624323e-05	-4.2821289241188315e-06	0.0	9.808283871924658	0.0
4.637500	1787824727826108160	4.894495756984541e-05	5.388458608624323e-05	-4.2821289241188315e-06	0.0	9.808283871924658	0.0
4.642500	1787824727832108288	4.894495756984541e-05	5.388458608624323e-05	-4.2821289241188315e-06	0.0	9.808283871924658	0.0
4.647500	1787824727835108352	4.894495756984541e-05	5.388458608624323e-05	-4.2821289241188315e-06	0.0	9.808283871924658	0.0
4.652500	1787824727841108224	4.894495756984541e-05	5.388458608624323e-05	-4.2821289241188315e-06	0.0	9.808283871924658	0.0
4.657500	1787824727847108096	4.894495756984541e-05	5.388458608624323e-05	-4.2821289241188315e-06	0.0	9.808283871924658	0.0
4.662500	1787824727850108160	4.894495756984541e-05	5.388458608624323e-05	-4.2821289241188315e-06	0.0	9.808283871924658	0.0
4.667500	1787824727856108288	4.894495756984541e-05	5.388458608624323e-05	-4.2821289241188315e-06	0.0	9.808283871924658	0.0
4.672500	1787824727862108160	4.894495756984541e-05	5.388458608624323e-05	-4.2821289241188315e-06	0.0	9.808283871924658	0.0
4.677500	1787824727865108224	4.894495756984541e-05	5.388458608624323e-05	-4.2821289241188315e-06	0.0	9.808283871924658	0.0
4.682500	1787824727871108352	4.894495756984541e-05	5.388458608624323e-05	-4.2821289241188315e-06	0.0	9.808283871924658	0.0
4.687500	1787824727877108224	4.894495756984541e-05	5.388458608624323e-05	-4.2821289241188315e-06	0.0	9.808283871924658	0.0
4.692500	1787824727880108032	4.894495756984541e-05	5.388458608624323e-05	-4.2821289241188315e-06	0.0	9.808283871924658	0.0
4.697500	1787824727886108160	4.894495756984541e-05	5.388458608624323e-05	-4.2821289241188315e-06	0.0	9.808283871924658	0.0
4.702500	1787824727892108288	4.894495756984541e-05	5.388458608624323e-05	-4.2821289241188315e-06	0.0	9.808283871924658	0.0
4.707500	1787824727895108096	4.894495756984541e-05	5.388458608624323e-05	-4.2821289241188315e-06	0.0	9.808283871924658	0.0
4.712500	1787824727901108224	4.894495756984541e-05	5.388458608624323e-05	-4.2821289241188315e-06	0.0	9.808283871924658	0.0
4.717500	1787824727904108288	4.894495756984541e-05	5.388458608624323e-05	-4.2821289241188315e-06	0.0	9.808283871924658	0.0
4.722500	1787824727910108160	4.894495756984541e-05	5.388458608624323e-05	-4.2821289241188315e-06	0.0	9.808283871924658	0.0
4.727500	1787824727916108032	4.894495756984541e-05	5.388458608624323e-05	-4.2821289241188315e-06	0.0	9.808283871924658	0.0
4.732500	1787824727922108160	4.894495756984541e-05	5.388458608624323e-05	-4.2821289241188315e-06	0.0	9.808283871924658	0.0
4.737500	1787824727925108224	4.894495756984541e-05	5.388458608624323e-05	-4.2821289241188315e-06	0.0	9.808283871924658	0.0
4.742500	1787824727931108352	4.894495756984541e-05	5.388458608624323e-05	-4.2821289241188315e-06	0.0	9.808283871924658	0.0
4.747500	1787824727937108224	4.894495756984541e-05	5.388458608624323e-05	-4.2821289241188315e-06	0.0	9.808283871924658	0.0
4.752500	1787824727940108288	4.894495756984541e-05	5.388458608624323e-05	-4.2821289241188315e-06	0.0	9.808283871924658	0.0
4.757500	1787824727946108160	4.894495756984541e-05	5.388458608624323e-05	-4.2821289241188315e-06	0.0	9.808283871924658	0.0
4.762500	1787824727952108032	4.894495756984541e-05	5.388458608624323e-05	-4.2821289241188315e-06	0.0	9.808283871924658	0.0
4.767500	1787824727955108096	4.894495756984541e-05	5.388458608624323e-05	-4.2821289241188315e-06	0.0	9.808283871924658	0.0
4.772500	1787824727961108224	4.894495756984541e-05	5.388458608624323e-05	-4.2821289241188315e-06	0.0	9.808283871924658	0.0
4.777500	1787824727967108352	4.894495756984541e-05	5.388458608624323e-05	-4.2821289241188315e-06	0.0	9.808283871924658	0.0
4.782500	1787824727970108160	4.894495756984541e-05	5.388458608624323e-05	-4.2821289241188315e-06	0.0	9.808283871924658	0.0
4.787500	1787824727976108288	4.894495756984541e-05	5.388458608624323e-05	-4.2821289241188315e-06	0.0	9.808283871924658	0.0
4.792500	1787824727982108160	4.894495756984541e-05	5.388458608624323e-05	-4.2821289241188315e-06	0.0	9.808283871924658	0.0
4.797500	1787824727985108224	4.894495756984541e-05	5.388458608624323e-05	-4.2821289241188315e-06	0.0	9.808283871924658	0.0
4.802500	1787824727991108096	4.894495756984541e-05	5.388458608624323e-05	-4.2821289241188315e-06	0.0	9.808283871924658	0.0
4.807500	1787824727994108160	4.894495756984541e-05	5.388458608624323e-05	-4.2821289241188315e-06	0.0	9.808283871924658	0.0
4.812500	1787824728000108288	4.894495756984541e-05	5.388458608624323e-05	-4.2821289241188315e-06	0.0	9.808283871924658	0.0
4.817500	1787824728006108160	4.894495756984541e-05	5.388458608624323e-05	-4.2821289241188315e-06	0.0	9.808283871924658	0.0
4.822500	1787824728012108032	4.894495756984541e-05	5.388458608624323e-05	-4.2821289241188315e-06	0.0	9.808283871924658	0.0
4.827500	1787824728015108096	4.894495756984541e-05	5.388458608624323e-05	-4.2821289241188315e-06	0.0	9.808283871924658	0.0
4.832500	1787824728021108224	4.894495756984541e-05	5.388458608624323e-05	-4.2821289241188315e-06	0.0	9.808283871924658	0.0
4.837500	1787824728024108288	4.894495756984541e-05	5.388458608624323e-05	-4.2821289241188315e-06	0.0	9.808283871924658	0.0
4.842500	1787824728030108160	4.894495756984541e-05	5.388458608624323e-05	-4.2821289241188315e-06	0.0	9.808283871924658	0.0
4.847500	1787824728036108288	4.894495756984541e-05	5.388458608624323e-05	-4.2821289241188315e-06	0.0	9.808283871924658	0.0
4.852500	1787824728042108416	4.894495756984541e-05	5.388458608624323e-05	-4.2821289241188315e-06	0.0	9.808283871924658	0.0
4.857500	1787824728045108224	4.894495756984541e-05	5.388458608624323e-05	-4.2821289241188315e-06	0.0	9.808283871924658	0.0
4.862500	1787824728051108096	4.894495756984541e-05	5.388458608624323e-05	-4.2821289241188315e-06	0.0	9.808283871924658	0.0
4.867500	1787824728057108224	4.894495756984541e-05	5.388458608624323e-05	-4.2821289241188315e-06	0.0	9.808283871924658	0.0
4.872500	1787824728060108288	4.894495756984541e-05	5.388458608624323e-05	-4.2821289241188315e-06	0.0	9.808283871924658	0.0
