# time_s	timestamp_ns	wx	wy	wz	ax	ay	az
-0.001004	1787824723188108288	-0.0024561106277028698	-0.0008662429155554624	-0.0037264680746193998	-5.628883786905001e-05	9.744982614917548	-0.021328150814853862
0.005536	1787824723194108160	0.0006144014811044635	0.0005125804550198499	-0.0001124597798180486	0.12650062812286797	9.806114333985857	0.04748281625508008
0.012204	1787824723200108288	-0.0025930279105458773	-0.00146096762898689	-0.0004957491999620799	0.046480847042869075	9.800515358992426	0.03245125467744128
0.018261	1787824723206108160	0.0017969939414955725	0.0017353704422026963	0.0013657491571649073	-0.024273576422772163	9.787580149669957	0.02776680374465518
0.022499	1787824723209108224	0.0020452580540989535	0.003156262813715605	-0.0005312420519369935	-0.0229337184880212	9.85113995517744	0.024686691348425226
0.029515	1787824723218108160	0.00044779907815287764	0.0017208362745220057	0.0008411654533467222	0.06341840457352066	9.790449096194658	0.010553247591551483
0.032253	1787824723221108224	-0.0008421847178502731	0.00336772279445172	0.0013834183520284003	-0.029646112715662136	9.783738806151103	0.07145102754403178
0.038777	1787824723227108352	-0.0019248595493458933	-0.0016786176103279397	-0.0012266888988248295	0.020779306490367133	9.800195214244724	-0.014307001597532239
0.044655	1787824723233108224	0.00043314244484227464	-0.00012484576823278818	4.795844384434712e-05	0.03434836486802805	9.704689174453915	-0.013647279857963934
0.046350	1787824723233108224	-0.00026735005835007913	-0.00040057530966300695	0.001255054196402352	0.007692363939330784	9.719322331225195	-0.0016678212347812083
0.053288	1787824723242108160	-0.0022948475223428257	0.0016252887053701491	0.0008566004224021294	0.03481132896249935	9.756717228927732	0.019000151349473134
0.057911	1787824723245108224	0.00125651405991299	0.0006829003004840046	0.002348067280025155	0.08251067831634505	9.720442695674292	-0.020385263284173158
0.062356	1787824723251108096	-0.0013702524181701183	0.0007412792660675975	-0.0012172212928925727	0.03593813363432105	9.802431909517477	0.019043613020835532
0.068610	1787824723257108224	0.0009979832569933322	-0.0007600272438791813	-0.0006958630386002173	0.0010146813238234818	9.79384656328809	0.010666321768852951
0.072688	1787824723260108288	-0.0019572569893807124	-0.0011729131087750613	0.0017178281202517684	-0.010116274286842579	9.806956804573234	0.03424200865330154
0.079558	1787824723269108224	0.0011585594883882098	2.6194699110922867e-05	0.0013431345180645708	0.021032066050581028	9.733912971979773	0.029994501991839277
0.081719	1787824723269108224	0.0011735539757905236	0.0008202618135461343	0.001046176154449802	-0.045233317904730494	9.811733651019907	-0.022552452564871255
0.089986	1787824723278108160	-0.00199378049729819	0.0012248876097934868	0.0012331446425068793	-0.0176655729072493	9.796082078836864	0.04267757349180411
0.094355	1787824723281108224	-0.00390953080622859	-0.0005944315845200399	0.0005281341852992193	0.07158764911930798	9.784326034991576	-0.055488507667733125
0.095943	1787824723284108288	-0.0010793240940747857	0.000738810073738761	0.0007690785995570285	0.02629776120118282	9.707061619080575	-0.005612492851578669
0.100622	1787824723290108160	-0.00016329950769230193	-0.0008226260479209619	-0.0018713042050399545	0.0006795109216732806	9.731724315211341	0.060273084948252266
0.106663	1787824723296108288	0.0010350744386596513	-0.0013220927136334518	0.001204366334308614	0.0464409926458136	9.705951693951976	0.057992932991924526
0.113712	1787824723302108160	-0.0006329308639163406	-2.4110940749699682e-05	0.0022968789677043134	-0.10739532021197461	9.776631003312792	0.036022146106051894
0.114212	1787824723302108160	0.0009018075147350129	0.0026189031526340748	-0.00030176688288300967	0.03323531706064186	9.810358428348792	0.052960486079253015
0.123036	1787824723311108096	-0.0007817479847505436	0.0022178285260178385	-0.002943257223471542	0.019001936269639634	9.801150146403083	0.011541510233628581
0.125825	1787824723314108160	0.0006159002361241352	-0.0032834146527317876	-0.0025521945414593407	-0.026065481655541275	9.767570142667719	-0.007523480321683828
0.131129	1787824723320108288	-0.00025827652284141794	0.0022232596549888167	-0.00070052674364222	0.02901605188492571	9.819140080911563	0.07939512571214673
0.137394	1787824723326108160	0.0003763812653522167	0.0007577771148851222	0.002717050641793741	0.09756051182093202	9.903420770231335	0.03688150148106492
0.140895	1787824723329108224	0.0006440996594794776	-0.003390779612208444	0.0001712092383174246	0.01921711466929319	9.798044478715624	-0.025334144898750292
0.146793	1787824723335108352	-0.0002784495357371086	0.0008224886164944873	-0.00012640922585615384	0.03258988335907831	9.795349329885852	-0.025912840276495618
0.151096	1787824723338108416	-0.0007869610177801242	-0.0009491406057038423	0.00010478333170272924	0.07169259257206148	9.76723578752325	0.029152391761723795
0.154269	1787824723341108224	-0.0001314355202237925	0.0020075789731452366	-0.001781310213092418	0.04580532430603512	9.74190545260882	-0.0037096897453207517
0.160496	1787824723347108096	0.0017205512741728186	0.0018115582626658504	-0.002478218055402061	0.037469988591200286	9.829905964229269	0.020225717043269864
0.168948	1787824723356108288	-3.1615350404339714e-05	-0.0025165027978911185	0.001987960669878926	0.07428660199304629	9.798219409465032	-0.040339096969336644
0.172435	1787824723359108096	0.003069370718446487	-0.0004313424294046575	0.0030109416482714388	0.0769015377046405	9.85103925715167	0.004355111952704134
0.178979	1787824723368108288	-0.0019881072593332027	0.001999771000208172	0.0003963882310809217	0.10054659264385205	9.668467017370983	0.055771208027284434
0.184924	1787824723374108416	-0.0035428917529451037	0.001441344305678318	0.0014466871231582214	0.016588982016457067	9.808107209358012	0.015654455750026
0.185424	1787824723374108416	-7.537538584772666e-06	0.0007833106006142951	-0.0002265038800785876	0.010016074134912943	9.733011313647134	0.03008943057400671
0.195263	1787824723383108096	0.001985800875202702	-3.866422832170012e-05	-0.0005220221501958827	-0.05718650974196075	9.80937995068615	-0.0001283670020003555
0.195883	1787824723383108096	-0.0016085323153126284	-0.0030321977944998933	0.0020234954160183068	-0.01601665263781061	9.82458171619917	0.06733888793147241
0.201136	1787824723389108224	0.002334048759078447	0.00017784104054478298	-0.0007628372288588268	0.0659060873488739	9.761098071875784	0.03850783299222803
0.208393	1787824723395108096	-0.0005337975557396135	-0.0002817302444577196	0.0019368291138139356	0.020459885518395386	9.75169465771918	0.06209561633948531
0.211750	1787824723401108224	0.00102129928466684	-0.00014725347028983143	0.0006733792273568107	0.027065927600678965	9.727642106290297	-0.0024039277459078287
0.216100	1787824723404108288	0.0001625979265625655	0.002211689875051584	0.0005036818064685525	-0.008207501452242076	9.849473624707187	-0.013193734807704117
0.223280	1787824723410108160	-0.004215020293418599	-0.0015020044306209746	0.0004812533715744914	0.056188905226581265	9.739102072806265	0.05755248349665983
0.247847	1787824723437108224	0.0008672289213349115	0.004724030751522259	-0.0007390087461751798	0.07980927090424629	9.79685189711088	-0.009888445714327652
0.254063	1787824723443108352	-0.001344943860215357	-5.8660885430543715e-05	0.0005660783568279403	0.008453250360630455	9.710851027063226	0.017980483322292094
0.256696	1787824723446108160	-0.002799919857324462	0.002334060974709015	0.0009641853035873636	-0.0005022409286886791	9.729229977258457	0.03647273120601417
0.264199	1787824723452108032	-0.0009256600282484258	-0.001883333711910143	0.0026582455787575216	0.0013355748567190004	9.920171551448854	0.040173279686417374
0.266518	1787824723455108096	0.0016916592162220148	-0.0024812572901389235	-0.0018612017937516914	0.062093802777760033	9.827681084981348	0.07150222023423106
0.273592	1787824723461108224	0.0010595013512026063	0.000757012726291996	-0.001248548638265753	-0.06663043280958084	9.700383726481562	0.058824201612883466
0.276703	1787824723464108288	0.0005950395616635661	0.0033565239348749727	-0.0015660127417139185	0.017049664186402382	9.754585708740683	0.062138125289150636
0.280684	1787824723470108160	-0.00139956846265293	0.0008533081535955915	-0.0002961917569310299	0.053806130159170865	9.741049010575933	-0.025395407056218233
0.288186	1787824723476108288	0.002428944973457388	0.0011515667450223495	-0.0005800317031463519	-0.0018670610532988685	9.848945707798558	0.08751654354203342
0.293139	1787824723482108160	0.002499800524235866	-0.0012418003481244318	0.0026426376594345363	-0.0003421826897896385	9.763257002342414	0.009195599956881208
0.297072	1787824723485108224	-0.004011728510689972	0.0006871837298483221	0.0023326842592156292	0.024316994915100795	9.766977015035817	0.039381908425550234
0.301550	1787824723491108096	0.0008152983413138371	0.001930434962473903	0.0015329895261696183	0.043236660043649636	9.744974727447122	0.0041838316330323096
0.306149	1787824723494108160	-8.349657531780311e-05	-0.0005553203518767089	-0.0008375950818682156	0.009714773460846784	9.814788362798664	0.0011335259612030683
0.314643	1787824723503108352	-0.0007834578419509534	-0.0011407160449513833	-0.0015827794648230777	0.02268743816636194	9.7305613042903	0.007713925920975889
0.317668	1787824723506108160	-0.0033259041454898235	0.0028907834235759816	0.001835146693100336	0.06010948331874162	9.794303654742698	-0.025735644455210517
0.321677	1787824723509108224	-0.00047991345890830263	-0.002848137612910772	-0.00016239798960014347	0.04595730454600314	9.784591301129113	0.06833993943201883
0.328542	1787824723518108160	0.0008882375834658932	-0.00040187227153338644	-0.002171378192766517	0.03451026362250792	9.72965264889484	0.0009128187034782992
0.335628	1787824723524108288	0.0021417234440726024	0.00016616364600065988	-0.002231059076169051	-0.016023083111655477	9.840147497916249	-0.0469271694628238
0.336128	1787824723524108288	0.00239558194897801	0.00019280248469521645	-0.0006215930333777857	-0.008328115594512603	9.76500946689779	0.09051030936932238
0.343227	1787824723530108160	0.0007167685542799055	-0.0018440801460879494	0.00020218943684704055	0.030066623898552372	9.775024491953637	0.05160096775809706
0.349128	1787824723536108288	0.0011183799933543314	-0.0009815467188066195	-0.00020071469058011924	-0.02406837019918308	9.814112753936591	0.07465060414068989
0.354233	1787824723542108416	0.0009973962606981293	0.00035447383509022387	-0.00010380619533190691	0.00887155004551109	9.77911918740768	-0.005982785422295262
0.359244	1787824723548108032	-0.0018192950615896271	0.00016130643209509538	-0.00020738290017257275	0.01699239146500864	9.751275214361632	0.028007053119338494
0.361413	1787824723548108032	-0.0006095654252636875	0.002355282601434711	0.0008741821574299732	-0.02022697412087606	9.731849149300766	0.03295424999185134
0.365574	1787824723554108160	0.0006855397691449327	-0.0004305773929064987	0.00038313376299573416	0.07652286556755966	9.786086951867112	-0.034051445865686765
0.371922	1787824723560108288	0.0002125510872724416	3.6163582638803956e-06	0.0015769856501400877	0.0217067794627232	9.788565931125076	0.07491673729173579
0.378142	1787824723566108160	0.00012387807029458787	-0.001078002729706774	-5.8957765330269345e-05	0.02989957632053183	9.79092723113146	0.010382088870093831
0.382113	1787824723569108224	0.0011286245248373777	0.001747806798870099	0.0022123466547841336	0.08554698091913573	9.776722335189412	0.07600086912766024
0.387847	1787824723575108352	-0.0008947724386702959	0.0005271360287117524	0.0002999725672820332	-0.014537701927560168	9.796352215088715	0.041074116618752335
0.393195	1787824723581107968	0.0016219313796119936	-0.0010642397730022395	-0.0006827426406955087	0.03448809342345032	9.796163100853907	0.012965363357128577
0.397768	1787824723587108096	0.0003321777447208959	-0.0008851549282207475	0.0004203070225294807	-0.004801469390948325	9.767130961669986	-0.049721632806580554
0.402790	1787824723590108160	-0.0005885227649672669	0.0015073523557611933	0.00272959233131021	-0.014049203814305244	9.785777168647066	-0.010325970409438577
0.406335	1787824723593108224	0.0007440756641298011	-0.0008964029603536809	-0.00014138261584863393	-0.029779387755916077	9.801224682367014	-0.0021176381175399585
0.412917	1787824723602108160	-0.000493535082155288	-0.0011911809243169674	-0.00042259102856287645	-0.04716136238373056	9.768132046489905	0.0034948756514651333
0.417807	1787824723605108224	0.0006774556876326891	-0.000211322462313687	-0.0011647437275875813	-0.011166541066517224	9.722869036041583	-0.03541230742832631
0.422695	1787824723611108352	0.003676138313561776	0.000630161182925272	-0.0006626723125009524	0.016923983150337624	9.737125805787413	0.0707341746449823
0.425073	1787824723614108416	-0.0024150911713309137	0.0021263774124074893	0.004022953509290565	-0.009944889424231738	9.754190754854482	0.02030232502617621
0.432997	1787824723620108032	-0.005631144764422226	9.017359236901222e-05	0.0007895420835732679	0.06518139174099172	9.811585769688866	-0.02367178136237777
0.438872	1787824723626108160	0.0031277949069950886	0.002142683100954721	0.0018781051192524403	0.03215895280314581	9.727980285540816	0.007264005753576962
0.441894	1787824723629108224	-0.0033077671495231643	0.0005251954672043155	7.921434418461668e-05	-0.05068395154046437	9.768443478892799	-0.056856110746012434
0.448123	1787824723635108352	0.0005272308524577864	0.002998222630246605	0.0021613301822017046	-0.020110374101361066	9.765257736497981	-0.019385976350379065
0.452830	1787824723641108224	0.0020848315414565125	0.00019016110221342156	0.0015091303804080187	0.04155970670192728	9.778683581235345	-0.040505357322755495
0.456077	1787824723644108288	0.003934043848714274	-1.6441258590708417e-05	-0.0018283720743166147	0.011747444193072956	9.777224903139448	-0.002345699408151221
0.460830	1787824723650108160	-0.0019806353932035788	-0.0008326516508296613	0.0014860041415639146	0.004189726658947488	9.817407286948084	0.04108221763500315
0.467888	1787824723656108032	-0.0003036549175803239	0.0021556764230665627	0.0004801337980542227	-0.010908583439667628	9.696332402350103	0.0817368676936423
0.471869	1787824723659108096	0.0006424224564593851	0.0008139678019725898	0.0009778726041063403	-0.005663153786167448	9.760563955321713	-0.028521229630192803
0.475556	1787824723665108224	-0.00487246405788353	-0.0008729765947507511	-0.0021796060849559773	-0.02427944334373954	9.831340882859928	0.024713234725159444
0.482775	1787824723671108352	-0.0001762609008348836	0.00033561532006579173	0.0018423047316392372	-0.02733282211446654	9.780790829402505	-0.04187731697347293
0.486988	1787824723674108160	0.0006254149027097003	0.0002122532954029864	-0.0017385848553846243	0.050849980819047194	9.826309626699299	0.04576294285142904
0.494610	1787824723683108096	0.0010919212279679633	-0.0007614723821928363	0.00013189963998497332	-0.09470429118203881	9.822077904319931	0.014059103140177906
0.495110	1787824723683108096	-0.0014556946095952616	-0.00014381438529456476	0.0011233283491972692	-0.042417288188624336	9.68740178779954	-0.03787721680990477
0.502419	1787824723689108224	-0.003202627997409599	0.0011992180179284388	0.0009046073458627347	-0.0005409049662180414	9.75047421549057	0.014167299597312232
0.507246	1787824723695108096	0.0007763631687358493	-0.0004756915461470711	0.001084306870782223	0.016006053339586088	9.729879891827714	-0.08246440561549195
0.512114	1787824723701108224	-0.0018135638724766404	-0.0004397246091852561	-0.0012685055574044157	0.05046876747479059	9.679675138112698	-0.017026424884381726
0.517726	1787824723707108352	0.003810024672574064	0.0009326591361192747	-0.0012865539754839319	-0.025131490912881124	9.83384764202889	0.08912591348929468
0.522507	1787824723710108160	6.238117163570764e-05	-0.002649306797220593	0.0024485918896551663	0.0030509034177567083	9.736550650219582	0.026957073528717786
0.526805	1787824723716108288	-0.0014846461288756422	0.0014293712944296057	-0.000892821991254805	0.09338510891319	9.781402845030124	0.03752398241998862
0.530877	1787824723719108096	0.00013613106839962998	-0.002083202597817558	0.001149833582445186	0.07920896032425295	9.778348248723654	-0.034709055463571996
0.538265	1787824723725108224	-0.0010542071221295672	0.0019106466309445418	0.0003943211898598191	0.1053661491208859	9.715285348991438	0.025584169971620753
0.542193	1787824723731108096	0.001480925985286188	-0.0015674924563900627	-0.0019462934716526483	0.06742422296688441	9.80165085334117	0.036977539944062436
0.546779	1787824723734108160	-0.001059133496155108	-0.00033664066227956043	0.0021832381421014557	-0.02951908658034142	9.77338590570262	0.02578866775355443
0.550944	1787824723740108288	-6.05352151890022e-05	0.0021240277518028926	0.0022435752097730408	0.02797395821314757	9.710534415212232	-0.07205388678945189
0.558104	1787824723746108416	0.000622216154197325	0.0015078294041910411	-0.0025017195877972396	-0.0028954228562818075	9.743300528221337	0.010259424601725449
0.565606	1787824723755108096	0.0011520528092159785	0.0007699903631893859	0.001400048867849804	0.05808608455733782	9.831102065509471	0.045568383253245984
0.569436	1787824723758108160	0.001297131087077755	-0.00224491817682434	-0.0009220085781346382	-0.02210971280438616	9.709925290971	0.049223828821970364
0.573101	1787824723761108224	-0.001064424799957644	-0.00047682967412992605	0.00019542308879937716	-0.04385201253291936	9.821092898761416	0.10910908226659516
0.578581	1787824723767108096	-0.0008574320297211062	-0.0018076580770040962	-0.0005634048442556797	-0.017092674455974524	9.769151145516375	0.07159409498487378
0.582053	1787824723770108160	0.0001787190647962977	6.02314231946065e-05	-0.001711236125461317	0.010253219640989061	9.808203460467329	0.10348973195540262
0.585679	1787824723773108224	-0.001455524450526413	-0.0013687088618930382	0.0007973545812103664	-0.015591166338528493	9.781493975754072	0.09553189729658325
0.592780	1787824723782108416	-0.0006147700073947809	0.00012930227479294825	-0.0008888393008956003	0.023144928844445536	9.82375310845473	0.1406199982932521
0.595425	1787824723782108416	-0.00010723796448788659	0.000501808116779619	-0.0008527920569177279	-0.035570591422582294	9.794471250899276	-0.030550296915901144
0.601125	1787824723788108032	0.002196364559517816	-0.0019774948813986288	-0.0012576490471971821	0.005539718472425938	9.764641906893367	0.12455986584678676
0.608440	1787824723797108224	0.00033516630017135893	0.0007730383576240732	0.001343176118686756	-0.02653541521867822	9.818977404389619	0.05661021499348164
0.611955	1787824723800108288	-0.00032778897260468166	0.0003194855186836529	0.0003445385079422039	0.020689348210973544	9.767776446872691	0.02727189901241845
0.620785	1787824723809108224	7.2201967201668645e-06	0.0003769786652544268	-0.0004439967284774489	0.009838763183871266	9.708484849725352	0.015976706152245945
0.622105	1787824723809108224	-0.0004595038315647294	0.00047080232875227885	0.0020624244378501166	0.04737438337813554	9.791756749708492	0.06487967858700898
0.628181	1787824723815108352	-9.781309815193492e-05	2.0665898065145706e-05	0.0001554170400462232	0.06776739618544425	9.761035760139379	0.10522066239138401
0.632070	1787824723821108224	-0.001504747240624219	0.0004669618230088487	-0.0013130433031059998	0.011137398108236458	9.769934215841166	0.04260325790528022
0.635737	1787824723824108032	0.001455760745888274	-0.0016339352147510464	0.004687014526485767	-0.029500943677442534	9.756407398826283	0.04286412801255783
0.640853	1787824723830108160	-0.0015404033172915766	0.002408096840048307	-0.00024569266527230056	0.03644089194367075	9.80108520057545	0.05473538804882501
0.649811	1787824723839108352	-0.0009565763121227463	0.0005368758888927341	0.0001436796861070658	0.03434421824065808	9.749864524520202	0.002424803379483781
0.652290	1787824723839108352	-0.0021024647721242817	-0.003117354939859983	-0.0004698728353904555	-0.08975452530501325	9.731988307406056	-0.008083953422887778
0.658188	1787824723845108224	-0.0014132180321644444	0.0005569538507401445	-0.0014985184534695405	0.09080812301168488	9.759456805365035	0.09627308590896509
0.663162	1787824723851108352	-0.0018938442452207987	-0.0003402583122692806	0.0019966233989342705	0.06279280218974065	9.79403600033666	0.034758064722724816
0.666296	1787824723854108160	0.002667847808068445	0.000414519339329628	-0.0004866763288972206	0.02078062090734264	9.78475657305455	-0.004161191763259495
0.671446	1787824723860108032	0.0015829192782817207	-0.0005256256266262685	-0.001478345926100499	-0.02255490486522664	9.721168170253158	0.045777990752769775
0.676603	1787824723866108160	0.0020235202166553065	-0.0020333996967741986	0.0012666350184454857	0.07869056239803213	9.738203236870588	0.0450056420153129
0.681935	1787824723869108224	0.00010419111302723711	-0.0004599885365500372	0.00077660775387682	0.10693726559370344	9.738057217225396	0.011312813288389775
0.687888	1787824723875108352	-0.0007951692802094354	-0.0008223487703887265	-0.002242817472002788	-0.03254376191638447	9.798037226987791	-0.013322174305368514
0.693218	1787824723881108224	-0.0015646081666009285	0.00048299293542774385	0.0007569289892296431	0.03290702671069584	9.749189213064694	-0.02095614486088509
0.698306	1787824723887108096	0.002280606691591245	-0.0008542400589201423	-0.00421956784111507	0.060521359841831664	9.79475653238241	-0.0126606744168401
0.703302	1787824723890108160	0.0033883670567872435	-0.0001724702963055722	-0.0014870793855844516	0.0514983307346814	9.828771581250349	0.01408767028642727
0.707740	1787824723896108032	-0.003117519461586525	0.0013187122433423798	-0.0006611139409186237	-0.019417795802812284	9.730846271199841	0.036355068742867626
0.711859	1787824723899108096	0.0011372614227021232	-0.0005027582628673134	0.0006810198929345396	0.0727891396708018	9.835526708509809	0.018558916856343446
0.718837	1787824723908108288	0.002599514835485838	0.0027508088014429172	0.0026232290763059957	-2.5040504559405152e-05	9.707165302627315	-0.015100623873535557
0.723819	1787824723911108352	0.0018904063669763192	0.0017186383456959673	-0.0016021248294763315	0.02305467418585514	9.712644490970263	0.0004707655290925074
0.729106	1787824723917108224	0.0010551570858030135	0.0034024294502826694	0.0002309460879550579	0.05766364125169057	9.692468491820302	0.030734375176109198
0.729606	1787824723917108224	-0.0018558385834090317	-0.0017387828403277452	0.0008101046058946618	-0.031150513926419064	9.774339642088767	-0.012946125041378757
0.737643	1787824723926108160	-0.0019537881793068915	6.541109417291013e-05	-0.0015356737756245101	-0.03198068073226464	9.778405355810094	-0.0013338165215832053
0.740924	1787824723929108224	-0.00124490003454058	-0.0016652579456350014	0.0005074109009667726	0.0783200079927784	9.763567779412007	-0.006213494175263564
0.746422	1787824723935108096	-0.0005515988763925622	0.0002636318495727939	-0.00025177992603288166	0.07228000461851723	9.860842330978269	0.03487220289941058
0.753542	1787824723941108224	0.00012398989083906638	-0.0006446713481898802	-0.0002381631506038791	-0.05303480668912752	9.799439821898126	-0.008875267162048214
0.754042	1787824723941108224	0.0002279904809136916	-0.003170727031572641	0.00012221472224240644	-0.004245484245972042	9.754145692183853	0.0045603683473792594
0.762028	1787824723950108416	-0.002243378317543205	0.00022901462355006934	0.00040736385896187244	-0.06881848396116881	9.745957935924979	0.0694459269839574
0.770864	1787824723959108096	-0.0015362694030564485	-7.401591431837134e-05	0.0023941185799239767	0.03762756321007924	9.769098460864848	0.023818374555115533
0.773433	1787824723962108160	0.0018332252632374893	-0.0021552798849592165	-0.0022690488830893773	0.01702742940280595	9.738773947682352	-0.0058436798794847394
0.777789	1787824723965108224	0.00245161502556196	0.0005108146362802874	-0.0008062550002099363	-0.0021518133847774346	9.71832108139292	0.059436497803370916
0.781873	1787824723971108096	0.0012385381286147397	0.0017664698964413718	1.3241284147629719e-05	-0.06257687635519978	9.841358842528809	0.006044564916179449
0.784956	1787824723974108160	0.0016500816492906725	0.001796297697419686	-0.002460894427345684	0.08196318029165599	9.757341941545098	-0.060061502562751515
0.794143	1787824723983108352	-0.0028820766029773047	-0.00019474823048040504	-0.004064669210879921	-0.0500007963998047	9.77613393579922	0.005848286618403425
0.797680	1787824723986108416	-0.0022294843907124736	0.0017503660062032768	0.0015492331062030614	0.073605765378611	9.818591977621699	0.05895677163535843
0.802075	1787824723989108224	-0.0018488714822622765	-0.00042396459755444406	0.0006537507554659652	0.03816315926699989	9.746697660622191	0.035258950870423925
0.807013	1787824723995108096	-0.0012201649873256977	0.0013508229109271137	0.003680445165973746	0.05860576451503732	9.796477687353724	0.0135856815061778
0.810327	1787824723998108160	-0.0017530773335485653	-0.0012269431811293297	-0.0026900114217277196	-0.020956362166804604	9.827359859077914	0.024435689939692515
0.820199	1787824724007108096	0.0003950233843095555	-0.0005340023849945213	0.0019251671160403945	0.025976883917705845	9.771692227595809	0.023826202688532066
0.822563	1787824724010108160	0.0003917442695161187	-0.0006861718239204303	-0.0014460780172652744	-0.03808417624284495	9.76693416121311	0.0067381645237221625
0.827309	1787824724016108288	-0.0012483371558034589	0.002670577279083799	-0.000561343092346938	0.007340874407369875	9.810466262397258	-0.027179288050545022
0.834124	1787824724022108416	-0.0007422804106046953	-0.00015876669760737512	0.004125128040531448	0.003138484697943481	9.854209397294897	-0.01164670307628337
0.834903	1787824724022108416	0.0020063474799194856	0.0022138549276451863	0.0024011713471761465	-0.010789976686268174	9.809300973539806	-0.08137238786218498
0.840945	1787824724028108032	-0.000521471146769591	0.0011827093870310935	-0.0019297469819364419	-0.03361342101245571	9.749378519409383	0.0022070196970885893
0.846747	1787824724034108160	0.000251135162143476	-0.0011958047302334416	0.0015669737523782716	0.04407129726829316	9.739835653511598	0.030528634372283564
0.850880	1787824724040108288	0.0024685570807284193	-0.0007458973794163174	0.0034255385163042633	0.03557095562045348	9.771008354804502	0.013608412196176234
0.856895	1787824724046108160	-0.003058544122017668	0.0009462599461801127	-0.00211381756311023	-0.015701625070990696	9.692809101282098	-0.04027354446915687
0.863320	1787824724052108288	0.0005460770998738564	-0.001075817083151392	-0.0014474666036827042	0.006152659370307668	9.68354633449256	-0.03822539665366737
0.867212	1787824724055108352	0.0002766220937741146	0.000505969539847653	-0.0029697038776996506	0.07379172324852976	9.738061967279151	0.010504326375976212
0.872283	1787824724061108224	0.0008479858236857239	0.0002232817946430837	-0.00013451003882951755	0.033419110552679356	9.753646437549236	-0.03791091106281568
0.876463	1787824724064108032	-0.0013242892169358868	0.00023912831557029526	0.0015837629092384866	0.022026712581613303	9.80145460278356	-0.005879113214267914
0.880869	1787824724070108160	-0.003628318598965057	-0.0021458810573439556	0.004018586915934207	-0.03160315211849181	9.748738238155324	-0.049410813945953716
0.888838	1787824724076108288	-0.00013003956262168398	0.0018766102324341896	-0.0030911998949761463	-0.0032667009802629723	9.77395180610971	0.07425119760130551
0.894048	1787824724082108160	0.0006519302695538717	-0.00038350815627936094	0.0014803879174047324	0.006065397703633721	9.753336021615734	0.11067141550969509
0.897182	1787824724085108224	0.0007274220127813927	-0.0016692423060922744	-0.0008693236137681689	0.006464622953149479	9.817559887754538	0.01589759795991958
0.903516	1787824724091108352	0.00033254098740609936	-0.0025612760868136183	-0.001888520125232393	0.04115061953391605	9.801788187514779	0.018547832655170866
0.908586	1787824724097108224	0.0005476118524325856	0.0023216672329313594	-0.0007227964236989769	0.08105674036459715	9.679230137920872	0.03035507256881674
0.912670	1787824724100108032	-0.0019121728455189196	0.00037529898219441557	-0.00017400831829771242	-0.006341868811291524	9.81850635056226	0.05204473766634808
0.919037	1787824724106108160	0.0014817801628890204	0.002774301979650258	0.0006934052923680519	0.04879434302862316	9.796181281061955	-0.07748537325957262
0.921360	1787824724109108224	-0.0016867967639387098	-0.0025638670771108017	-0.0008074182241251044	0.11576065767035372	9.801232555364694	0.07237251694969171
0.926145	1787824724115108352	0.002960501545036566	0.002823037073277928	0.00019701920013325095	0.018025566387062212	9.796602621473685	0.07446010605182918
0.931372	1787824724118108160	-0.0016021745355743972	0.004745657528100309	0.00241003347518907	0.058947758136858465	9.768887866757971	0.020290377345779164
0.939608	1787824724127108096	-0.0009137069599704828	0.002132199501003984	3.8269520279553864e-05	0.019492851161642934	9.759470745338357	0.09443129163063993
0.944109	1787824724133108224	-0.0015649655191748884	-0.0013166377462663671	0.0012718705176620537	-0.02938339323942503	9.744948107387476	0.12296719413404888
0.947534	1787824724136108288	0.002689835032243907	0.0012001485179756917	-0.0007460431883156056	-0.030385103850171208	9.871832375869134	-0.04638673673882665
0.979440	1787824724166108160	-0.0013579506526925935	-0.0001529197924367161	0.0016790262581532717	0.012098207098476569	9.719156642498055	-0.031028623095439377
0.982880	1787824724172108288	0.001808238333749041	-0.001493527676488404	0.00044082577329904773	-0.0645443598782647	9.749714487062809	0.08637745494325005
0.988797	1787824724178108160	0.00036854329740793306	0.0018539993748371106	0.0006492816879613583	0.007356222654231647	9.810763449720515	0.08537685953495913
0.991640	1787824724181108224	0.00035546054626655867	0.00011039200818609394	0.0033879183961701416	0.03358089857378229	9.762349730854785	0.07283616890346482
0.995492	1787824724184108288	-0.001176452223002243	8.37546336357179e-05	0.0016472808935281157	0.03563780188920507	9.77618760123752	0.07172132686154034
1.001935	1787824724190108416	-0.0010336458551718582	-0.0009585108039496461	-0.0015229875443946018	-0.015082794800733386	9.727698393666703	0.025139910106385242
1.006016	1787824724193108224	0.0015247994062111004	0.001323091766274548	0.000978544226286394	0.0036621823119354184	9.705961109774009	0.025815875532147613
1.013739	1787824724202108160	-0.00010257749011770535	0.0009940277901738011	-0.0024711711384386255	0.010520432930952475	9.698574615199721	-0.06142371562907137
1.016805	1787824724205108224	-0.0004246802388633451	-0.0008270006363506125	0.00014005900129104246	0.049217422672521494	9.723963517640545	-0.004042848451772451
1.025374	1787824724214108160	-0.004277175624368972	0.0012465003495627253	-0.0006753699913725651	-0.011484037020527235	9.738426600281814	0.042832369818792876
1.025874	1787824724214108160	-0.0012439838576896315	-0.0002967182034724857	0.0008040166164944202	0.03856783846090327	9.794025695050271	0.031860521554413705
1.033110	1787824724220108288	-0.002403563889399015	-0.0018434203567638684	0.000336947070104648	-0.034020635772383345	9.687165926464997	0.05803044489782989
1.038391	1787824724226108416	-0.0033914245131960495	0.00031886771654181234	0.0007971057971106843	0.038887491077354515	9.727723421705866	0.01909229777809287
1.043997	1787824724232108032	-0.0002359999812394454	-8.370999440333e-05	0.00033993499602366477	0.029335166642700278	9.825365402825165	0.030861706545454552
1.050085	1787824724238108160	0.00014862696052773695	-0.0012485993162794024	-0.00045722405847602095	-0.011650387053856633	9.761323196682598	0.03504401735977723
1.053140	1787824724241108224	-0.0032247902099456997	-0.002118585116001846	0.002412959185988301	0.033465141754481585	9.774270324384123	0.02524379441978551
1.058058	1787824724247108096	-0.0024315861665690467	-0.0025508444356636584	-0.00043363301067440065	0.09188653402936416	9.824530742667248	0.034602634375626676
1.062868	1787824724250108160	-0.0010867488069914567	0.0013265574591527333	0.00041925366111955544	0.008487319841370689	9.753651348114778	0.0014173857104460875
1.067800	1787824724256108288	0.0017792978543708976	0.0016001844332802692	0.0013963508477167709	0.018066766575780442	9.792439172555298	-0.042495604147334616
1.071380	1787824724259108352	-0.0023445623702254225	0.0005537425530394218	-0.0017231362578101674	-0.03508570796021105	9.840934535689865	-0.02643617876686686
1.077511	1787824724265108224	-0.0013109384807905233	0.0007390091143845588	-0.004470479133862003	-0.05564782813045145	9.749982752138735	0.03245091897821094
1.082787	1787824724271108096	-0.00011395429008870918	0.00100715365422109	-0.0010911185253835729	-0.011225580393113811	9.763102141515557	0.026089756010374596
1.088530	1787824724277108224	-0.0019339806303750719	-0.0020030215129211164	-0.0001789122626054929	0.02000738353493988	9.751079109371245	0.012401734497206041
1.091022	1787824724280108288	-0.00027702278586057586	0.0011222971380095623	0.0018782112797889102	0.05565187887204644	9.798040370766852	0.01637400248295048
1.096864	1787824724286108160	0.0013192674645001797	0.0005344959480188058	0.0027097103215110866	0.04792022679773336	9.745284100747513	0.12489600073539615
1.101581	1787824724289108224	0.0021336946365575226	-0.0022256992233381334	0.0005868944034619341	0.06270574506671665	9.761069722808118	-0.01799875730402066
1.106650	1787824724295108352	0.0008527824860601351	-0.0012831365726108533	-0.00010045139539398328	-0.009127844840877038	9.753953439525766	-0.0064827901494298006
1.112057	1787824724301108224	0.002060151513244721	0.0008168141580093852	-0.0001278021624920231	0.037865504759388435	9.774250138702289	0.03505254530259505
1.115489	1787824724304108032	-0.001680172995034752	0.003922426172924791	0.0007688214569715559	0.010945666082117623	9.744603077507726	-0.018857454632267345
1.121248	1787824724310108160	-7.014876710955582e-05	-0.002220806748260917	0.00011491873664237255	0.012138605925141814	9.823862627297707	-0.0142983241566242
1.126943	1787824724316108288	0.0017975946451980922	-0.0010780985429758047	-0.0027770391777003343	0.03399038607378068	9.75851749405256	0.03117269554918212
1.132895	1787824724322108160	0.00013814847756214444	0.0005552822261144202	0.001928493736905304	0.0035270841730449844	9.756223869239495	0.027529128265424835
1.136418	1787824724325108224	0.0008088830827344037	-0.0009681151562419337	-0.0023996702758544864	0.012210355882184835	9.740212747520134	-0.031305247121854105
1.142206	1787824724331108096	-0.0038862578914105675	0.003319551676783737	0.00039044327997220723	0.02780774405359203	9.746341343220056	-0.004483444701437817
1.149286	1787824724337108224	-0.0022678968599711396	0.0006800423174329076	0.000513001212312907	-0.027953078610446963	9.77858341043185	0.08592008311460879
1.149967	1787824724337108224	-0.0036775686313727345	-0.00041473592812943784	0.0006903412987960557	0.022953477001454017	9.810035379353566	0.010871803524577239
1.156692	1787824724346108160	-0.0007833930223556445	-0.0002469319697145255	-0.0029971294492924707	0.07651270323495228	9.751714307437123	0.028394485546488192
1.159930	1787824724349108224	0.00018733200081923077	-0.0011122046880451574	0.0013847921206737593	0.00594033427227399	9.822413405972377	0.06585232838371577
1.168997	1787824724358108160	0.001034586268310693	0.0022800808586218263	-0.0017373579322173406	-0.018109549345605276	9.766608588344184	0.08176024151027916
1.171550	1787824724361108224	0.004730104283943376	-8.79867002110571e-05	0.001805627835963583	0.0911447077902294	9.767970762683763	-0.051224431429089654
1.176310	1787824724364108288	-0.0011539155344643382	0.0022665376723978482	-0.0002498825983971244	0.11573222729164905	9.712376599649954	-0.02902631898217306
1.179369	1787824724367108096	0.0033158233676893636	-0.0006617695216327948	0.0005198275536807045	0.029658825051405036	9.778927195819444	-0.05986840639838646
1.186148	1787824724373108224	0.0002839742190226167	-0.0011686266754277568	-0.0012209695233364854	0.020127329196610647	9.760306196008964	0.03515703152724306
1.191401	1787824724379108096	-0.000948451852178848	-0.001182248945738194	-0.0005647789341825494	0.03640593778237105	9.746827119521196	0.1208456240136278
1.198780	1787824724388108288	-0.0003851362238854797	-0.0010475735823740448	0.0005998533431287062	0.09522682559376563	9.71379316408218	0.04343583768774124
1.203651	1787824724391108352	0.00245517162574802	0.001965155214767748	0.003685919760260993	-0.06419349217100986	9.760379178537605	0.029406923506762807
1.209270	1787824724397108224	-0.0007137941586765487	0.000430126847495825	0.0012370704671082586	0.029438560639066563	9.74897642075801	0.05443540947571244
1.210650	1787824724400108032	-0.0021897023065197904	-0.0015393517319453845	-0.0022461319267285704	-0.030200946087249672	9.760515379794985	0.056971003546647414
1.218122	1787824724406108160	0.0013641489336773504	-0.0028600279471589778	0.00019760851365256384	-0.0032244042185858336	9.733403616127598	-0.0016020655922302368
1.222169	1787824724409108224	-0.0002019270210360752	-8.30195597725603e-05	-0.0010424661604831625	-0.007716375882971957	9.738432895714386	0.03971326021897573
1.226283	1787824724415108096	-0.00012689568452762184	-0.0026906249116178853	0.002814588547039049	-0.05136547534953835	9.799426192294808	0.0875215021417525
1.233706	1787824724421108224	0.0018140296574962243	0.0006722072851813532	-0.0001296205776841855	0.026988642760996016	9.775922801216804	0.006662669397692346
1.237274	1787824724424108288	-0.0025988310167090654	-0.003296917624656014	0.0003681584055624148	0.037118374712738336	9.793424274005549	0.0385291806212386
1.243861	1787824724433107968	-0.002686288940646566	-0.0004216800128477164	0.0016060437113633599	0.03182380257519548	9.771404620305052	0.0796860291920719
1.246400	1787824724433107968	0.00046095203663702765	-0.0007135024891677541	0.0004648518914208543	0.009864941276644343	9.785490165772886	0.009264301764134591
1.252808	1787824724442108160	0.00034655353549865517	0.0022919071543896093	0.0011566724787130168	-0.04008456161936913	9.843565540069378	0.030685551180449043
1.258748	1787824724448108288	0.002370174268882073	0.0007211152700464388	0.0030870704384748254	0.03073301982786974	9.766623199813052	0.024671251508104817
1.261999	1787824724451108096	0.0014104878664198148	-0.0009545870017833784	0.0005987642228554384	-0.015578294575161633	9.850253006713237	0.020244407897088465
1.267256	1787824724454108160	-0.0008940393444709963	-0.002864375571329619	0.002955696788573661	0.029403686485495642	9.822051773871816	0.011097816006446527
1.271068	1787824724460108288	0.0007360886387527446	0.0015848413650771124	0.0008567885661956343	0.018860376339581167	9.775331501465436	-0.019958770598200094
1.277910	1787824724466108416	-0.0028644801005734476	-0.0010934466511134597	8.030847034641538e-05	0.040288431138934364	9.729824033362503	0.04047918895847451
1.282665	1787824724472108032	-0.002445825654204441	-6.1820835054401e-05	0.00010056665027621643	0.028690853043550138	9.77662086605042	0.11248944261829527
1.285880	1787824724475108096	-0.0009236664146668984	0.0025823222533287527	0.002334558855693644	0.025684999932544177	9.885526088920136	-0.020370199941582505
1.289592	1787824724478108160	-0.0009419300098310543	-0.0009293113291877855	-0.0016514871599635909	0.0792887122368493	9.712236269474834	-0.01639883806623168
1.297959	1787824724487108352	-0.001490950522876639	-9.825434149692081e-05	-0.0009820161248173956	0.006485432051247901	9.739675313314098	-0.0009716290078876644
1.302263	1787824724490108160	-0.00029286962848872245	-0.0009564571784364633	0.001649632923023872	0.0066562676899432766	9.733208361058024	0.024626647877378432
1.307246	1787824724496108288	-0.002305213414108308	0.000846954694122937	-0.0013498008560234912	0.04381905735512753	9.828871231346444	-0.0473136006717976
1.311143	1787824724499108352	-0.003221392858238343	0.0011225774315397805	0.001151697307892181	0.07242240881344195	9.800536275175908	0.025532924776408235
1.317892	1787824724505108224	-0.00017735124279308557	-0.001057273586580863	0.001974294759731015	0.0025919843205862124	9.685984578029071	0.051643088495731876
1.322701	1787824724511108096	0.0015378329338653007	-0.001203616176442648	-0.0005222108925792958	0.031036722690881625	9.801192589923792	0.03577127874094949
1.326949	1787824724514108160	-0.00151263595481836	-0.00010495712915156532	-0.0005192833338271898	0.012474955768958976	9.779771750768532	-0.033068515502951805
1.329443	1787824724517108224	-7.779385912934e-05	0.0036424093285055944	0.0010060032317716278	0.0683352143592516	9.766509692118257	-0.05804958595204156
1.338908	1787824724526108160	-0.00031090439910729157	-0.002925643111766774	0.000927988383327989	0.01095182307871867	9.716161676574092	0.06335372183144256
1.342364	1787824724529108224	-0.001402092576606212	0.0007081908025178874	-0.0011350723521976924	0.011134299167564487	9.772262666220369	0.04211932999092384
1.347748	1787824724535108096	-0.001429322448619177	0.0013843421903641814	0.0008957398008876375	0.022937101593189835	9.777403838640597	0.03893988156588542
1.352442	1787824724541108224	0.0005458468520921278	0.0020792325662381643	0.00014833914117024118	0.034826798671397145	9.823078008925387	0.12795376092470798
1.358581	1787824724547108096	0.0016106844716914845	0.0017439118228371922	0.001010649820563733	0.02483945829637386	9.762444158258884	0.034728656083101196
1.363485	1787824724550108160	-8.701102823444237e-05	0.0012903013410179983	0.0020138841111152768	-0.042142052156940224	9.814369500884146	0.03668582400298337
1.367835	1787824724556108288	-0.00022167594807941191	-0.0006372937039417678	-0.0004453772787460952	-0.012700654991371511	9.823585417557208	0.0925171058147304
1.370878	1787824724559108352	-0.0007997611339238398	0.0012001429034462826	-0.0008065957993759431	-0.03211690306062319	9.785437921895614	0.15070531093820227
1.377351	1787824724565108224	0.001123599981411467	-0.0005902870852367111	-0.0006517697618569479	0.056082985690354796	9.77900417336453	-0.011529981337261137
1.380866	1787824724568108288	0.0026241039842174983	-0.0004278357228879512	0.00030281789511736666	0.08165700212912884	9.804599882757472	0.052084415937277896
1.386992	1787824724574108160	-0.00012898110391685317	0.003403561974297146	0.0029703639568536533	0.05898013175648341	9.775250976051593	0.013401685559067903
1.391013	1787824724580108288	-0.0011757002212578825	0.0008656176133510898	-0.0019404429147324436	0.07745536461559882	9.762650072588379	0.05895370994232355
1.397264	1787824724586108160	-4.187403589659165e-05	-0.00014453014910291697	-0.002465754855293463	0.09863768946730445	9.815625109786692	-0.053077040018470356
1.402853	1787824724592108288	-0.001096081288190091	-0.000765066491150545	-0.0016817596507355855	0.07524819514484482	9.817162298900403	-0.019859907544499684
1.406228	1787824724595108352	-0.0006662676561636236	-0.0011334634632390983	-0.0005815000566611848	-0.017431079348365935	9.743611231574798	0.1230290261731912
1.412755	1787824724601108224	-0.0014055733752604109	-0.0009680217844120285	0.001672652275710068	-0.003737885952464177	9.789683096043449	0.04200931352230755
1.416148	1787824724604108032	0.0002253970575150631	-0.00018670877908756706	-0.0019889152456138513	-0.05915360443560895	9.816954697930626	0.07574355196742176
1.424098	1787824724613108224	0.00027269419179541546	-0.0013400383473295137	-0.0028415353351739143	-0.05786864834960252	9.824198670865483	0.022554935613666487
1.427688	1787824724616108288	-0.0028801203337921813	0.0006568843725088344	0.002103793250415623	0.09547795612806242	9.788401695678147	0.02198296596898267
1.431425	1787824724619108096	-0.0038412711099159603	0.0007691032950109251	0.004797266066832551	0.034380868313553956	9.78120440880359	0.04820650733726932
1.440305	1787824724628108288	0.0004842111206818777	-0.0008980197325790142	0.0007691717379141381	-0.0034533860117329507	9.804564975352067	0.022914562485941852
1.440805	1787824724628108288	-0.004545683739353951	0.002673396420842899	0.0024954551841844036	-0.005417654349160719	9.719780017965785	0.02163007911207284
1.446915	1787824724634108416	-0.0005626544381930458	-0.0008728310180492401	-0.002106846935456465	0.028016729092826247	9.81041674712272	0.026176592172402268
1.453634	1787824724643108096	0.000862792417062426	7.644364538106508e-05	0.0012003771553355093	0.06350783064985174	9.828990936967202	0.004178576185837363
1.456417	1787824724643108096	0.00119147367723596	-0.0009818400491165037	-0.0025060288825558626	0.012473485777261676	9.787642127104833	0.0016194321346845106
1.461460	1787824724649108224	-0.00040219539856855646	-0.002053287528909889	0.0018244991107769937	0.0771784022929057	9.806109062952121	0.06975873098782996
1.467687	1787824724655108096	0.0005795335697257553	0.00022896215336451099	0.0006007252415706971	-0.030058227899229836	9.723692130223112	-0.002485405353961561
1.470345	1787824724658108160	0.0012533017040160302	-0.00039674558945897685	-0.002475779331454641	0.003746486685502464	9.77711146689119	0.03657350399171391
1.475332	1787824724664108288	-0.0013933318351352652	0.0010759983022332268	0.0017948626266199167	0.06927994064866967	9.71709864950345	0.020416485979956447
1.481690	1787824724670108416	-0.00284898463924395	-0.0005932374497746308	-0.0023987106778127643	0.043501702939351614	9.710566928119523	-0.06348896274044279
1.486112	1787824724673108224	-0.0014332601498583313	-0.00037886644019792797	-0.001047721839271258	0.0012647187326851432	9.77206175933572	0.06651214562487351
1.490011	1787824724679108096	0.0020715243769813554	-0.0024716997160721325	0.0015190087114540609	-0.014660478690025645	9.75959602416299	0.06731675367171855
1.497369	1787824724685108224	0.0031214854684502237	-0.00040331174329376167	0.003128862105653797	0.022393536380429922	9.790109274346227	-0.05202534684701414
1.503290	1787824724691108352	0.00036311646624973524	0.00038249579971562787	-0.0022122833610721047	0.027073210522432643	9.682614366377457	0.004895241227136948
1.509159	1787824724697108224	0.0010751193975556612	0.0019719484625391167	-0.0013579042961289153	0.04076188496398633	9.700295167309275	0.08353411458947015
1.512196	1787824724700108288	0.0007680419084954225	6.113709347783238e-05	0.002602635957930691	0.04796948283288627	9.740664787101364	0.024752374205593564
1.515955	1787824724703108352	1.9855649436915546e-05	-0.0007703612631078101	0.0018106262610489549	-0.010100075620628729	9.7677278297725	0.08055909064536279
1.520689	1787824724709108224	0.002318600426664554	-0.0007216022496074637	-0.000615903807800856	0.0380189901577941	9.718862138387456	-0.013262386833132446
1.527633	1787824724715108096	-0.00014460275540147528	0.0032804550271774264	0.0018843163433840862	0.034958598045430445	9.71395072600744	0.02976535292345997
1.536054	1787824724724108288	0.00029938509543666003	0.00016346367647209273	5.1498602471971624e-05	0.05492750857157497	9.765141639928165	0.018713451836809992
1.537609	1787824724727108352	0.0008874788675808891	0.00029865594916646807	0.0030181441320416974	0.04693187995982494	9.734732546413573	0.08924267784938952
1.541826	1787824724730108160	-0.0014598832403973896	0.0026914255826680036	-0.0030569007165199566	-0.025736654115132915	9.776037515538235	0.06776571437510649
1.548816	1787824724736108288	-3.0390623590525678e-05	-0.0011281581403393165	-0.0021228614593593593	0.07864920042887903	9.762322721253167	0.050697951509971174
1.552217	1787824724739108352	-0.0010406607000463	0.001729658643275056	-0.0013718298954334969	-0.004878933560994433	9.767208168932076	0.03948767625212131
1.556217	1787824724745108224	-0.003056673994845828	-0.0007404027529266712	-0.0011052043924677027	0.07238038630196349	9.72915672253852	-0.009854975106130204
1.562282	1787824724751108096	-0.0014127407310717975	0.0030197930111730215	-1.8672838263566918e-06	0.06906001713327439	9.834513446548169	0.040962118350021295
1.567182	1787824724754108160	0.00402678510873659	0.0008755617203492159	-0.0001387482016887813	0.025252447163078867	9.792851382954476	0.011738211308842996
1.573258	1787824724760108288	-0.0005356377454258925	0.00043538942969290507	0.00374121976504138	0.03177349397605581	9.797306120157664	-0.0013014823275426524
1.577403	1787824724766108160	-0.0002146860642832821	-0.00028257464752372665	0.0001888489223214121	0.04643937754328786	9.822140010592173	0.031316274962013134
1.581014	1787824724769108224	-0.00010901396903206612	-0.0001481709793565459	-0.00030641642940291644	-0.03380235458794732	9.750738924885576	0.0757664184080884
1.587980	1787824724775108096	-0.0005487867525409292	0.00030461732380155737	0.0007223982525151082	0.05514405916347213	9.770030040281059	0.040597960824455936
1.592691	1787824724781108224	-0.002820603548634262	0.0002279336664875821	0.002081415324097563	0.035395858372566424	9.69918695206804	0.08572639401642491
1.597814	1787824724787108096	-0.000881742876512245	-0.0011072083766607206	-0.0012287329427675617	-0.021711975012976288	9.812147411084469	0.027730031975837222
1.602222	1787824724790108160	0.000634791999390181	-9.966462204877294e-05	0.0001461747908742106	0.07551599442593535	9.852345738812819	0.015089384702782128
1.609300	1787824724796108288	-0.000907717979258522	-0.0007219122061277838	-0.0007393058815489165	0.07908696365161368	9.766819646830474	0.03801739914994208
1.615382	1787824724802108160	0.00033567540514652827	-0.0011653657939186225	0.004582047789143541	0.06162805963441132	9.772978723200358	0.00736272107730695
1.620123	1787824724808108032	-5.153711317270091e-05	-0.003422925020598488	0.0006251314488800426	0.06581939297157134	9.742095691848165	0.023186559468019376
1.623407	1787824724811108096	0.00043448666941540005	-0.001614107387481655	-0.00019992935854427896	0.06034480603137411	9.758338166431013	-0.021064234764757335
1.627782	1787824724817108224	0.001200716077472609	-0.0020827309174050283	-0.0012825145577201246	-0.017899230276706923	9.762684464111867	0.026722728276179934
1.630607	1787824724820108288	0.003870538337907132	0.0009819515520765449	-0.0033590292320076452	0.08008719159748337	9.723436921862687	0.014505856725939376
1.636207	1787824724823108096	-0.00048285239898093974	-0.0004862129036437501	-0.0005576264556482382	-0.012245502497695855	9.820358508270594	0.020272998585966574
1.642806	1787824724832108288	-0.0020484374641436282	0.0013676752673177233	0.0015467878017476572	0.02242873949134481	9.696729032052295	-0.011616133860053134
1.645367	1787824724832108288	-0.002082786622186795	0.001578368739663894	0.00276632593527914	0.06978794883022982	9.817629519064356	-0.0024266070627995615
1.654071	1787824724841108224	0.0019998715814418468	0.0013375429990029994	-0.0010290505394296076	0.0373087349160655	9.780295879500922	-0.05455447039449213
1.659985	1787824724847108096	0.000990860084038714	-0.0008070621197177472	0.002551584016829156	0.01770164094253032	9.74951693460232	-0.05893203416669299
1.662816	1787824724850108160	0.0012257859760686559	-0.0025170036474679363	0.0009768834795006402	0.0698339278728114	9.700078051693582	-0.040946487983282126
1.667659	1787824724856108288	-0.0012945000741870635	0.0022570952806027765	-0.0017189317899417031	0.05237057348169313	9.800322975176272	0.024615950356249403
1.672381	1787824724859108096	-0.0006789521679390506	0.0010887420351247494	-0.001391791042848922	0.029009967934303438	9.717583644384634	0.09532415666060608
1.675088	1787824724862108160	-0.0012086306610580358	0.00211930847240047	0.00015186984500784533	0.03620694681587604	9.796492885318408	0.07482820737481805
1.682878	1787824724871108352	0.0007806703808046845	0.0002111861166714308	-0.00015893979326735011	0.10133744082560024	9.72093876540792	-0.002119159531811597
1.689109	1787824724877108224	-0.0008150537300606421	-0.003346113653254214	-0.0020066486272159053	0.10530586602690685	9.746252948721247	-0.035245003871993225
1.693432	1787824724880108032	-0.0005660921270612164	0.00253992603757006	-0.0018055964130316523	0.013321417723711848	9.859443756171293	0.03759959957897471
1.696750	1787824724886108160	-0.0018567979415242198	0.002710578602186644	0.0010458603405722278	0.028252049455571346	9.764768249056436	-0.014176522406508997
1.702620	1787824724892108288	0.001626096627918847	0.0015418312302629851	-0.000548888139008291	0.06476002488333825	9.779343271033571	0.05278776756873083
1.705877	1787824724895108096	0.0010123118185886542	0.0017229299048367886	0.0007645604559102508	0.083676803818243	9.75638669658809	0.006213343256937818
1.713078	1787824724901108224	-0.0006665787533054166	0.00012774604066720263	-0.0011983398698668874	-0.024792352827356368	9.758936116846455	0.09753843666451156
1.719087	1787824724907108352	0.0009000247970026035	-0.0002067699336951775	0.0022640641199045074	-0.05312936293679858	9.750953701165972	0.013656072568150638
1.722983	1787824724910108160	0.0007180760844900821	-8.238682529595367e-05	0.0011545538082762556	0.050140632058068915	9.794549859127669	0.025852257879647456
1.727209	1787824724916108032	-0.0008929141454497422	-0.0006630491996794223	-0.00046914991254158074	-0.007999192051391366	9.68362585290631	0.024463013982783468
1.733379	1787824724922108160	-0.002278659052110836	0.0006264393397339824	-0.0027729349882159846	-0.014039124029773628	9.767907602099918	0.021168076085836117
1.740302	1787824724928108288	-0.00011259909326241878	-0.0002777908801645787	0.0032687811316305993	-0.03535581032326295	9.726103287948762	0.06488173895051351
1.742896	1787824724931108352	0.00032113780568264526	0.00047224039064484066	0.0005033505481847481	-0.01420636521388828	9.756538978005485	0.07398418788988081
1.745381	1787824724934108160	-0.0008388806119953946	-0.0007632749289129611	0.004010530880244697	-0.020093337916413365	9.802363177482018	-0.013319879005018909
1.753532	1787824724943108352	0.0003848623067811862	0.0015007380595002855	-0.00038958707366232905	-0.04292617893248937	9.748298160451546	-0.04783856244447726
1.759801	1787824724949108224	0.0014343471028105909	0.0017573603536736905	-0.001471807464650089	0.11423977949105375	9.776336372746716	0.05968519680649626
1.763404	1787824724952108032	-0.00101661821444547	-0.00042459807437468826	0.0006089153164782622	0.10289939660550117	9.756914434893744	-0.003129660277548525
1.768200	1787824724955108096	-0.0017865194059007701	-0.0014006167259793907	-0.002053928429823603	0.0014223187973291702	9.711934770734377	0.11152865257763199
1.770372	1787824724958108160	-0.0007170977884019732	0.0011089506637822577	0.000332004103328664	-0.029089188163332162	9.739168887160886	0.004830391247747125
1.776838	1787824724964108288	4.737264349888454e-05	-0.00106768065420235	0.0007362010473280791	0.1020470325197975	9.783959172068702	0.04012324301325919
1.784343	1787824724973108224	-0.0006370063660962536	-0.0010083617108379394	0.00141404120180757	-0.02897475373583159	9.794582933988119	-0.026872062142305878
1.790304	1787824724979108096	0.002517308457224902	1.5947477968018735e-05	-0.0005188365675762338	0.04987618805198094	9.762680304074976	-0.02169524113861116
1.792006	1787824724979108096	0.0008923492828796113	-0.0009131826111613701	0.0010887790744797982	0.03493634068202057	9.783033266344656	0.119296498759543
1.797440	1787824724985108224	-0.0006295819820730106	0.0011595780165629575	-0.0002855168534025189	0.023096623994434577	9.742421539530461	-0.019514615550791342
1.801208	1787824724988108032	-0.001880219196205279	0.0013663076484470814	-0.0017282447209668599	0.03925881434339376	9.80735541681398	0.03156769034752606
1.807734	1787824724997108224	-0.002930353966406749	0.0013545895462042541	-0.004436874427478022	0.09175360068588093	9.76373653740901	0.004508694854872854
1.809494	1787824724997108224	-0.0008303332109091991	-0.00027389399101137516	-0.0011077405514353061	0.044007631761924244	9.808110722499364	-0.028163292816454334
1.816533	1787824725006108160	0.00109042983816489	0.001739157223405242	0.00412898561726736	0.02301228341581923	9.788488659357345	0.030552041870987916
1.825807	1787824725015108096	0.0007657905979692885	-0.001015010251925966	0.0016472194236634883	0.02558700536800034	9.731496924445443	0.05824480630236378
1.829041	1787824725018108160	-0.00108815356356278	-0.00033467331655300425	-0.0009571790772540858	0.0017491777035675699	9.771722382392545	-0.037451580696442485
1.831994	1787824725021108224	0.000987271790355645	-0.0008723562453509798	0.00266748182023724	0.014609330054851764	9.774001296088565	-0.024420084446163545
1.838287	1787824725027108096	-0.0001577278787327145	0.0012611846047370567	0.0013499412885146418	0.008880277424948613	9.772048861912749	0.011003853886319595
1.841810	1787824725030108160	0.0003294357235234114	0.0006825802925222225	0.0019253759869397452	0.012895131846557809	9.752965323242762	0.04864911315267928
1.850907	1787824725039108352	0.0008289934481991758	-0.0015805811654231283	-0.00023073174675414254	0.11791493847620538	9.632804276374786	0.03227291788403588
1.853232	1787824725042108416	-0.001530594260720645	-0.00050335650947439	-2.995058501629983e-05	0.08919687259791949	9.81311631238206	-0.03278622377260291
1.855428	1787824725042108416	-0.0014738413080126105	0.00048170814630467786	0.001966779941252185	0.007904561535642226	9.739364043794033	0.04177457639444226
1.864351	1787824725051108096	9.74256359008755e-05	0.00436773785219174	-0.00013003669581561692	0.029872651424749343	9.742319346407626	0.020471734252323983
1.865782	1787824725054108160	0.002089791566035826	-0.000872167795861326	0.004543303303655915	0.053312987538826476	9.73164565736549	0.02234323747652287
1.874275	1787824725063108096	-3.9647901079916366e-05	-0.0008105887924787126	-0.0018280471142137456	-0.015180564420098651	9.762625355968908	0.06577669769782564
1.875802	1787824725063108096	0.004490356774005231	-0.0014923392796416268	-1.0439070821830957e-05	0.0038768064722237497	9.75782027192288	0.02879672082987323
1.883324	1787824725072108288	-0.0002040884683231139	-0.0022950291346092687	-0.0021631486042095914	0.09258159977807467	9.798174716889749	0.03875529319104211
1.885653	1787824725075108352	0.0010616009197446177	-0.0026760065440089714	0.0007439686740753648	0.06115171497231482	9.781399453512648	0.05006922349888569
1.893054	1787824725081107968	0.0010300786179140954	-0.0023877067354124387	-0.0012333318816870502	-0.04435576025795414	9.758745295563841	0.039454618568332156
1.896390	1787824725084108032	-0.0013351732873375284	-0.001428186034097733	0.0005847168366410138	-0.03865406078807307	9.686662698195356	0.0684844118625561
1.900541	1787824725090108160	7.210110800882342e-05	0.0024933477913663253	0.00018898114867758957	0.05879671401963747	9.742065960609311	-0.015571058432736602
1.904975	1787824725093108224	-0.0012066128393506844	0.001768328718366802	-0.0003256457317106549	0.09484798968364899	9.816348370824958	0.009975996479084733
1.912386	1787824725099108096	-0.0016739178600561424	0.0008923352529066283	-0.0026994113673548576	0.018546341864468494	9.797929757730563	0.07235670902668415
1.918361	1787824725105108224	0.000484878673466457	-0.0006916681619371553	0.0013177969876278655	0.018445058121429745	9.849402416500144	-0.006731579036452901
1.921283	1787824725108108288	0.002636878266087696	-0.0021702291212938093	0.0008672035426298364	-0.021841563039832923	9.798412737654225	0.008902364279122322
1.928564	1787824725117108224	-0.0003101724237414602	-0.0003198570216260576	-0.0024343035083053315	0.13293715390230532	9.723213924824352	-0.054500539788465044
1.931917	1787824725120108032	-0.0008161490466394431	-0.00017337053342358474	-0.0016448793342198368	0.1006797548818299	9.707370197152937	-0.0036856023651103582
1.938000	1787824725126108160	-0.0032633520395643633	-0.001473246756907893	0.0019436429742071956	0.03183273916655789	9.778912476847461	0.03773455837224218
1.942573	1787824725132108288	-0.0020682515347580895	-0.0012224636321928003	0.004403500933394143	0.06907595654964514	9.776259017371977	0.01800115122645738
1.945078	1787824725132108288	-0.002474453063997684	0.0037183467596857297	0.0012981235263643566	0.010402166993493545	9.781299825185537	0.02400540624159618
1.954010	1787824725141108224	0.0003423201189761713	0.0021447530370774476	0.00011174756726432179	-0.03335600724112135	9.696497064925751	-0.04506893352846543
1.958617	1787824725147108352	0.0037319533441407997	5.68637384212983e-05	-8.879914024706936e-06	0.011111680001184026	9.792784125649339	-0.05507022134285712
1.962761	1787824725150108160	0.0008307660637348449	-0.0004251761539696401	0.0008448998557192787	0.036193908549727434	9.793272283657837	-0.007534297367463215
1.965250	1787824725153108224	-0.000938112868192882	-0.0021885889183926167	-0.001054448717084748	0.044376742990147836	9.715048390428382	0.03813621239440943
1.975642	1787824725165108224	-0.002992002533790864	0.0020975700185797384	-0.0006307032868168975	-0.008207812665078217	9.773669838025935	-0.008854874172852072
1.976503	1787824725165108224	0.0030630718089695867	0.00026469426478004327	0.0008000310791726431	0.013194157134628747	9.79292771977479	0.13515157590323768
1.983581	1787824725171108352	0.0002822903429871517	0.0007663293232892075	-0.0007643855400171519	0.15243192058730654	9.777846919703947	-0.017338205139625834
1.988221	1787824725177108224	1.0394851846729368e-05	0.001649569575775085	-0.0009653653610401786	0.0539386188808384	9.809088175731546	-0.049046923744747506
1.991813	1787824725180108288	0.0006847404135993108	-0.0008997017342063631	0.0013804789127628788	0.03162936288642729	9.819400040652829	-0.0207770793246706
1.994687	1787824725183108096	-0.0033701109701677057	0.0018310403592614525	0.003176842921819317	-0.002155210796680615	9.80969878794519	0.07275167382916634
2.003616	1787824725192108032	0.0008382828293575552	-0.0037481904539144245	-0.001497335858134434	0.017660130126950724	9.718548990211069	0.012545819961072943
2.007150	1787824725195108096	-0.002662440872199347	-0.003477868786600847	0.0030549416007241777	0.03658934993463449	9.748796930714635	0.06345211070978896
2.012405	1787824725201108224	0.0011532780654941058	0.0008549787846757776	-0.0031921508458202037	0.08789145395203492	9.81796156747324	-0.008863257222860021
2.016460	1787824725204108288	-0.003170340596285073	-0.002817933886251545	-0.0019441098561648724	-0.019179325231330195	9.75217695202875	-0.005662092287649391
2.020470	1787824725207108352	0.00038302156078012263	0.0014004054329648237	0.0016428589301492546	-0.019982275595677654	9.76038250341273	0.04646640351497777
2.025738	1787824725213108224	-0.002970912498676059	0.0011956235198167498	-0.0027256614367561923	0.06696537787060627	9.72654455480805	0.01867794979664812
2.033389	1787824725222108160	-0.001561135855191992	-0.0008168356130155537	0.00012811159760431877	-0.0024763282763075115	9.680297655349014	0.018939957321483996
2.038312	1787824725225108224	0.0012661616902039264	-4.969856074424769e-05	0.000774921553079997	0.0664621376826703	9.771996616914924	0.02657547411489056
2.042049	1787824725231108096	0.00028432004542008194	-0.000733837540352824	-0.0016122639962799427	0.0006665442703908814	9.757656851356511	0.016412844069257967
2.048804	1787824725237108224	0.0007123201241386811	-0.00276017212334935	-0.0001733216099483577	0.08587183580887453	9.813223225468256	0.03875575185209938
2.053105	1787824725240108288	-0.0015943720170492144	0.0017859807206053926	-0.0005405667514229017	0.015111315603368371	9.708329255062782	0.1308713748299004
2.057059	1787824725246108416	-0.0014555534950155037	-0.0006972296461406526	-0.0010615965566737758	0.021815659993127647	9.694759657185086	0.09282963647305968
2.061577	1787824725249108224	-0.003573326841281631	-0.003101482607361799	0.0035557649924771507	-0.0014030475999634862	9.827132394857763	-0.02064492488465873
2.067767	1787824725255108096	0.00013066939588685767	-0.00017647332333268028	-0.0006962867777464078	0.030905697959984716	9.828851106684091	0.0743471565119019
2.073672	1787824725261108224	0.00016464583360333436	0.0018805868674745133	0.001987000169862209	-0.021262382820543865	9.734326443293455	-0.009465060502986948
2.076725	1787824725264108288	-0.0009984374944889268	0.0027494943910115885	-0.0002345012614643232	-0.0559411244512512	9.745959983651836	0.014522064023585616
2.083044	1787824725270108160	0.001747153628478997	0.0007338677708082233	-0.0035772904755723453	-0.005329750670370902	9.770425267163251	0.07330911780884933
2.084398	1787824725273108224	-0.0010303527269608984	0.0006749673290083433	0.0007945703694834509	0.040144201746032795	9.82061530628143	0.0014477047004132042
2.091999	1787824725279108352	-0.0010280498760091548	-0.0019351548413706393	-0.0007135354926985197	0.019868057180946464	9.78678105572205	0.022537826315920464
2.098115	1787824725285107968	0.0024439176365381086	-0.002422417709686532	-0.0006444436115853477	-0.0029245726735493346	9.69109053423928	0.02542589037798393
2.102132	1787824725291108096	-0.002494931796167205	-0.0018939876158852711	-0.0002443237047683267	0.033550128770608846	9.802430137697248	0.11208588087814263
2.109451	1787824725297108224	-0.000727743695630414	0.0008909798325352825	-0.0002629741671652852	0.029886335066593873	9.76349067034671	-0.01604732498806851
2.112936	1787824725300108288	-0.0019098560821467568	0.0009687140225697703	0.001676335275390261	0.043132974992888734	9.764338132922338	0.029389014185641715
2.115952	1787824725303108096	0.004079671280318503	0.001298333694201862	0.002329361333133619	0.008769668877826806	9.7924348070711	-0.02473638243918462
2.122851	1787824725312108288	-0.00041924656286120135	-0.0013334216207739585	-0.0003461179165153286	0.052905811530548234	9.800819095242693	0.11261121524093845
2.126773	1787824725315108352	-0.0011432071065028838	-0.0032965975455455016	0.0022664052158032784	0.08455503131334133	9.765886999415923	0.016168053823286115
2.133164	1787824725321108224	-0.0013620482032070888	0.0017057717415904974	0.0005081277228738297	-0.004444380038622263	9.82228755496668	0.06951989794016286
2.138098	1787824725327108096	0.0002247858657507768	-0.0002766665558034501	-0.001299325027167915	0.0011333899690660273	9.786462643905214	-0.07072671574075036
2.143945	1787824725333108224	-0.0009935587224082008	0.001254057325794524	-0.0004437279649632464	-0.01847140183604254	9.785473678492192	0.05206835483288192
2.147695	1787824725336108288	0.00030060191497666486	0.0008274982196690492	0.0017191133090311088	-0.001792979202898816	9.750090748345386	0.017208714524760742
2.153414	1787824725342108160	-0.0014602058433646405	0.0010973274464265183	0.001562225886112312	-0.0012330297675271149	9.696911801614473	0.0815295199500308
2.157511	1787824725345108224	-0.00033935168533712353	0.0011641431938014396	0.0010102072691884321	0.09582598829209957	9.729382484649323	0.00890766013752688
2.160397	1787824725348108288	-0.0009464032171173703	-0.0007023246319831682	-0.0026994634683350184	0.01924147497998456	9.753486949234935	-0.014668952217311793
2.165405	1787824725354108160	-0.0003080778840234777	-0.00045511362703354807	-0.0018815222214473106	-0.02149972057044349	9.743704398532618	0.06883530090865311
2.173315	1787824725360108032	-0.0004827492468257675	0.002193435641437652	-0.0018323050420397651	0.030755257334456904	9.765592089274554	-0.03965638551860434
2.174424	1787824725363108096	-0.0006976041654524643	-0.0011173382858699348	-0.0010418175183975322	-0.02718771190498842	9.77117738038666	0.036098692203054145
2.180740	1787824725369108224	0.001686082496520687	-0.0011915156283214187	-0.0010426706681801268	0.015990053408981013	9.737592651215055	0.06307143089434802
2.187375	1787824725375108352	-0.000911865852293863	-0.001573544137864457	0.002600326934176175	-0.004732069275259678	9.76102456343782	0.07903007970648585
2.196217	1787824725384108288	0.0009022756176261961	0.0019943486627992577	0.0006875664758507242	-0.12949931398449183	9.719734868634541	-0.009693435873920166
2.197813	1787824725387108096	0.0005164960435473769	-0.0003017207354439938	0.00046273447559347277	0.08695135699671874	9.810798257412236	0.01494583138455293
2.206057	1787824725393108224	-0.0005511127927628307	-0.0022712800665807367	-0.00301519842542671	0.016209730288972192	9.755787208594995	-0.050731538551110913
2.206557	1787824725396108032	0.0024959035695440637	-0.0014394970042524732	-0.0016157903138666148	0.07234942711010782	9.794993461538562	0.030666067142642507
2.212815	1787824725402108160	-0.0003457009271415805	0.0006153248086860992	0.00024173719129687836	0.04356625083727249	9.812394838165181	0.0023371474608676578
2.217931	1787824725405108224	-0.0008650892227928472	-8.794046785878603e-05	-0.0009217242210015522	0.03612044326954812	9.770240686840221	-0.037948290996804655
2.224200	1787824725411108352	0.0015787372892383177	0.0004171974385630807	-0.0015089950479002837	0.008406084337308696	9.802112298505254	-0.05397650354222015
2.228404	1787824725417108224	-0.0005881203468527022	0.0019583881826004245	-0.0006612611632445706	0.038891864020659216	9.760868990952687	0.030163775023486404
2.230961	1787824725420108288	-0.00036021685819518176	-0.0037477085313982975	0.0014169241969769707	0.06922366907101576	9.713867292992326	0.012893239674772605
2.240193	1787824725429108224	0.0013658827296274452	-0.0006615218997580109	0.0014746004003575507	0.038684065323017644	9.752534340393261	-0.0348670687726443
2.241544	1787824725429108224	-0.0030180265171064007	0.00035175494421512527	0.0010955333885594094	0.1570031984604564	9.73495470994858	-0.0015554811030894164
2.248054	1787824725435108096	0.0009882432529409399	0.0013572938324703527	0.0013013729441742035	0.04886610962824804	9.790978476682188	0.00412433640533149
2.252931	1787824725441108224	-0.00035857352931438307	0.002016777273938549	-0.0012917180596244877	0.04555233833886687	9.794492379584591	-0.052605794683280124
2.258127	1787824725447108352	0.000638982173354376	-0.003006698220504817	-0.00014820899024144845	-0.10643222919801378	9.738382095885733	0.003753417766560633
2.262467	1787824725450108416	-0.0021097940748550127	-4.514840108615235e-05	0.0015163472428181553	-0.011216411386862593	9.841156315436566	0.022338962099462543
2.264777	1787824725453108224	-0.002027055530861802	-0.0005233739822497561	-0.002732811510331713	-0.0061611788141377015	9.798337780717121	0.04691367332502044
2.272066	1787824725459108096	0.0022738459282099256	-0.0004703344997860604	0.003643853144531302	-0.020645860928061706	9.71809875057802	0.06637517649130042
2.277040	1787824725465108224	-0.0015532104761168022	0.0016420847636827594	0.0011681677037363768	-0.0272869707982792	9.692222727039733	0.030900637234110205
2.281079	1787824725468108288	-0.0012107149110295097	0.0011512623536179397	-0.00015072151234513088	0.032897344555138826	9.82138945938095	-0.008561548646467073
2.289189	1787824725477108224	0.0007163882098695044	-0.001006809859901695	-0.0008383677415164665	0.07165048809249136	9.774781060178457	0.04137879330845681
2.291867	1787824725480108288	0.002637450772285019	0.0013871117983280058	-0.00030736367967596336	0.04819802741189899	9.724635303837669	-0.011999163884655412
2.295333	1787824725483108352	0.0020773414585483264	-0.000801938814751392	-0.0009427587338919983	0.04933746069376847	9.72205307955622	0.04309448489132728
2.303396	1787824725492108032	0.0011773166558590035	-0.001581107636980415	0.0005491205588859952	0.02036401955539805	9.770869190561001	0.0065084759980984196
2.308789	1787824725498108160	0.00021374574577286425	0.001487617467586847	-0.0004005445014431082	0.010761919237684176	9.78018057806465	0.056034438117244345
2.312426	1787824725501108224	0.0001292059677154905	0.0011359191539606467	-0.0003147854413133725	0.007885917242497677	9.768203792135912	-0.022516511749622256
2.317136	1787824725504108288	-0.0016973999112257882	0.0017411404893587438	-0.0007146806268162316	0.028315232583493825	9.731329989666134	0.016510050612152133
2.321458	1787824725510108160	-0.0005682029637392973	-5.611141397062195e-05	0.0021136356246529995	0.015430552037616861	9.750031127649667	0.07020439578962287
2.325957	1787824725513108224	0.0007493579092279957	0.0028799104588422757	-0.001785017029020327	0.009788626809656248	9.795081548686912	-0.0370015140996302
2.334131	1787824725522108416	-0.0011123433201188848	-0.000534088941439741	-0.0010956509978833112	0.04112752505054201	9.746499815568862	-0.06849407910179887
2.336289	1787824725525108224	0.0003129503370393431	-0.0008427612778508499	-0.0012427440508169523	-0.02550194523386433	9.772436039500773	0.04197552621575751
2.342339	1787824725531108096	-0.0006650031665231299	-0.003710494482886356	0.002642949364991544	0.023428944268304722	9.717955691418867	0.007344974823411501
2.347395	1787824725534108160	-0.0011478048519144703	-0.0007509551514175613	0.0029567546816449807	0.05588671323749791	9.726821750175887	-0.0139385546690124
2.349236	1787824725537108224	-5.974757204321321e-05	-0.0003134102041239756	0.0018089373027984127	0.03444418756992769	9.870690734445041	0.07491350104751282
2.357793	1787824725546108160	-0.000638190235849193	0.004545599038413347	0.0022680580010644596	0.021158237230196636	9.796463646484568	0.007483598208540053
2.359551	1787824725549108224	-0.0035370541225756436	0.0034142437232417278	-0.001525539750375478	-0.01001560138244742	9.7960393642235	-0.07022123115302382
2.369387	1787824725558108160	4.8118914979740116e-05	1.8819361633268494e-06	-0.0026376488162894226	0.018567098646432304	9.693971394179545	0.04914564063989364
2.370781	1787824725558108160	-0.0018296877502033393	0.00047133512888914515	-0.0005501483109845314	0.0021415215371715854	9.763726450536149	0.07037777118245002
2.376025	1787824725564108032	-0.00043087652015966855	0.0006326577803002825	0.0013031513699992233	0.0588610990069506	9.83374656580935	0.021616530884802386
2.379361	1787824725567108096	0.004350657911811859	-0.0019885935285003857	-0.00016952080415973407	0.08248497765769341	9.757318609228166	-0.004836990596223761
2.387138	1787824725576108288	0.002058548169812118	0.00022951246525763704	-0.0031251600423133027	-0.037815327384686494	9.78522129157752	0.02210267101800524
2.392726	1787824725582108160	8.675972669587455e-05	-0.00023159094030134923	0.001141459228179148	0.10070249984223459	9.70117259419166	0.053793765207699414
2.397431	1787824725585108224	0.0011352400156424429	-0.0026063533123318774	-0.0004959521438125337	0.10073825305039788	9.840838566400373	0.047499527105635625
2.402282	1787824725591108352	0.002263031213131605	0.0026924256600530457	0.00103979503658642	-0.0008412904657517165	9.785179774987101	0.07745211320509657
2.405267	1787824725594108160	0.0013809449693735546	0.001145999546968501	0.0002813638663079675	0.03446332874989867	9.85257494561888	0.0480833054232138
2.414018	1787824725603108096	-0.0011382687502257923	0.0009090448679823288	0.0007033439777267112	0.003006481173781883	9.781749098356515	0.0414791275091792
2.418455	1787824725606108160	-0.0005825095406071317	0.0019511765985191383	0.0007680287336301812	0.07425469629119805	9.715925367014064	0.005115825448659805
2.423050	1787824725612108288	-0.0034666506813004136	-0.0023047894621510663	-0.0016426523493237625	0.011015720226273827	9.823902805555974	-0.007870492048224074
2.429265	1787824725618108160	-0.0014061163261248962	0.00309108243863257	0.0002633315952037194	-0.03332974646205558	9.763976413906462	-0.018474931891449477
2.434933	1787824725624108288	0.00044253615816106226	0.0015313117251990064	-0.000824578817417314	0.02171442899393025	9.832400918635624	-0.007017700368320095
2.438200	1787824725627108096	0.0016527641920047757	-0.0007881507254808589	-0.001350773458162069	-0.006723733417910081	9.754036409387327	0.020127156661542977
2.440365	1787824725627108096	-0.00030434884947899135	0.0008159057992769179	-0.0014565977094129381	0.09023887953610933	9.830899283451565	0.0017746546837721852
2.447384	1787824725636108288	0.0010199883698817137	0.002495294013967661	0.00025671429381216514	-0.021872716123562466	9.877716782245855	0.026485775665579362
2.451279	1787824725639108096	0.0003253001231998899	0.0011741512523105368	0.0005884749805561201	0.005226500722733798	9.770638078585513	0.007047670986545237
2.455907	1787824725645108224	0.000561240669155965	0.0024961393863242288	0.0004260659925637113	0.023303281969824608	9.832826505576897	0.02190665830227123
2.461403	1787824725648108288	-0.002712172954228559	-0.00253065135715563	0.0006949541313877418	0.10321595696492133	9.762928645725976	0.010280531649817185
2.468100	1787824725657108224	-0.0018961307735443297	-0.0005390957672911291	-0.0007625074581103096	-0.01145671809806291	9.791502004855023	0.05569993207036346
2.472987	1787824725660108032	-0.001015535297008151	0.0002157986184533412	-0.001669574532940369	-0.09011304901481532	9.745130051102516	-0.011914691599492988
2.476798	1787824725666108160	-0.0012076379313343867	0.00035591071666958606	0.00025515796929622477	0.008025150107353052	9.753952184973366	0.017747034081746497
2.483773	1787824725672108288	0.0006809611794938596	-0.0031334563840100457	0.0032968306958601206	0.0049723978726135265	9.808527186267266	0.030503365206703097
2.487244	1787824725675108096	-2.2765832000369956e-05	0.0015915364058443709	-0.0005783678725737684	0.04493011219573465	9.728965751354947	0.07381345174450789
2.494497	1787824725681108224	-0.0013118443518718855	-0.0014980635467318041	0.0025583610338161047	0.04333503188978538	9.769490579403918	-0.011875019213560448
2.497936	1787824725687108352	-0.0012904188772684155	0.002571119809127559	0.0007858581390355838	0.05316665819005828	9.734412339456156	0.08156739799817014
2.502749	1787824725690108416	-0.0008554323722688992	-0.0004976981441627401	0.002760819327854851	0.04763823397991236	9.807892797110924	0.05141644837564405
2.505453	1787824725693108224	-0.0003643418169341472	0.006394567424942254	-0.00011911243432695355	0.07876852863450345	9.827336016636531	0.018234439460837137
2.514028	1787824725702108160	0.0032522751159756113	0.002052066520809974	0.0022780760293423384	0.024715341163607272	9.753474312057374	0.1255797090150566
2.516844	1787824725705108224	0.0003221023644470903	0.0008071782217835767	0.0007314166981541056	0.04711610859630572	9.811100922579012	-0.02370469826946315
2.524399	1787824725711108096	0.002157730509880068	-0.0004729880154171316	-0.0013531831553878979	0.06248623725910196	9.814281543570742	-0.02196702205098172
2.527772	1787824725717108224	0.0011184844351216532	0.0009104356324549913	0.0006103225065611001	0.06661964578613908	9.80610429749852	0.024881166517400022
2.533387	1787824725720108288	-0.0019350447837605726	0.0017536171713158162	-0.0004175141776530318	-0.0014798797216509993	9.749718108279383	0.0003841229332709091
2.537109	1787824725726108416	0.0010223869146391935	-0.0013404257929674685	-0.0004885960769422898	0.03765903329687556	9.794983162961737	0.05563776794649968
2.542181	1787824725729107968	0.0007033512101283907	0.0003288863710005323	0.0006710560651572407	0.006655074225679212	9.824058016066923	-0.01514324234629938
2.548291	1787824725735108096	0.0001471812616228154	0.0007702732067058102	0.0002525117833947114	1.881585036564784e-05	9.818786587136685	0.1082855478762158
2.553439	1787824725741108224	0.0011838589254520861	0.0012792229705511666	0.0002055371797698851	0.06051908092102266	9.870788811383441	0.05783698106699624
2.554978	1787824725744108288	0.00042909578666432027	0.0003576116240669396	0.00010990895822111823	-0.041504608700927564	9.747338007663556	0.01693866509060068
2.562044	1787824725750108160	-0.0004130442470470985	-0.0011986157903259962	-0.0007447991986171056	0.061302370125789325	9.788414155618863	0.04002025445916542
2.567268	1787824725756108288	-0.0002289180012411959	0.0013334406171263836	0.0036122691145927042	-0.016463485168225968	9.772810926077591	0.012114451496229344
2.575311	1787824725762108160	0.002975048075493282	0.0018257818610090655	-0.0003895918876854145	0.03457474582325952	9.790375613517112	0.057275698269123924
2.576364	1787824725765108224	-0.0002614471154611806	-0.000901085959755942	-0.0015000239483542416	0.02981381981274616	9.744845108428187	0.05472076265340429
2.582127	1787824725771108096	-0.0004394351216708175	0.001677233147607478	0.0015297519063654748	0.13014939535523184	9.806207023517276	-0.017397707843367173
2.588352	1787824725777108224	-0.0006855710877750028	0.003109698149101711	0.0009064447585450941	0.06492789295634327	9.782347980197718	0.06258634595952972
2.600247	1787824725789108224	0.0037155908793283956	-0.00045078544566778305	4.2027966423044085e-06	0.09186126157089548	9.809881242043039	0.027565675302981707
2.606857	1787824725795108352	0.0014265863444099531	0.0003377744284514363	-0.0012642513489410849	0.02920265557296401	9.751216356688255	-0.016082059633621318
2.611573	1787824725801108224	-1.8774802633830337e-05	-0.0005248999964088763	-0.0020533245465972198	0.021652543242133077	9.768157836748053	0.017171223553992154
2.619560	1787824725807108096	0.004080392648020781	0.0014310589324417027	0.0017734140303316984	-0.007906376050592391	9.7965742788337	0.016978468535654077
2.621625	1787824725810108160	0.0008381586705382962	0.0011705208258487134	0.0018208588850258925	0.026408352299541592	9.787600081325717	0.06380230397512915
2.631584	1787824725819108352	0.0015684644169685596	0.0017928449161788982	0.0008233341764866911	-0.03234899588565187	9.673851566305197	-0.0624933650699665
2.632179	1787824725819108352	0.0011047033577423402	0.000482886054999962	0.002901177778189605	0.03426166956992848	9.720527200362069	0.047660533546729056
2.639223	1787824725828108288	0.00015637844404060391	0.0005707287764680286	0.00040023484096287216	-0.036977495505141934	9.813627288932034	0.029930758844591503
2.641098	1787824725828108288	0.0008695501246972368	0.0017904075561748728	0.0013236732943118672	0.04020191266612648	9.802034361987777	0.015242583043384213
2.647449	1787824725834108160	-0.003459496109447048	0.0008868025210338398	-0.0019144080447949857	-0.028645439962718733	9.771555520021645	0.03346928817118111
2.653537	1787824725843108096	-0.0008509107016628656	0.002330724669486271	-0.0025457902430173754	0.056918423206391684	9.786383446799707	0.04280206750949655
2.657785	1787824725846108160	-0.0013948171172164377	0.001804406775013092	-0.00017455604863618013	0.045686440422561134	9.86783704204741	-0.0069502837935383754
2.662412	1787824725849108224	0.00038000645773087177	0.0015521078154171002	-0.003574990861930515	0.020647382082440054	9.778762658999067	0.008005829759164897
2.668497	1787824725855108352	0.0012366469003260493	0.0010519836149812673	0.00048805820087477144	0.04617410508763013	9.69473163523267	0.02028229868433338
2.670703	1787824725858108160	-0.0043872926417849725	-0.00019809871949447944	-0.0007116203338606521	-0.001698032585284854	9.685861078541125	0.050562732427390775
2.677759	1787824725867108096	-0.001208489455972572	0.002850951589013067	-0.001335418220313219	0.028811750466918303	9.879363235226752	0.009887467242555932
2.683207	1787824725870108160	0.0005872087885602284	-0.0017220324617578118	-0.0010705671567046732	0.054502234353262805	9.722717671684517	0.05425085666062937
2.688880	1787824725876108288	-0.0016690350209032595	-0.001475248902269532	-0.0013026914590595193	0.004460312308611051	9.824088579688672	-0.0006547041235820499
2.692783	1787824725882108160	0.00011430324565769288	-0.001257295451773684	0.001679873685160458	0.04187785405033047	9.78905802570541	0.07906476849366298
2.698100	1787824725885108224	-0.0007843512550899741	0.0014164147648853137	-0.0018218830686823919	-0.0484307470459812	9.884665102935728	0.008041432549329536
2.704372	1787824725891108352	-0.0005688459989165841	-0.0038273147282573156	-0.0009809492409989758	-0.006333816851965983	9.869927374589661	0.04185676265473562
2.706336	1787824725894108416	-0.00145131671695406	0.0017185146982430823	-0.00023679580195003138	0.03757411168816988	9.767966757369868	-0.009809124821090084
2.710941	1787824725900108032	0.0004318786830962776	-0.0013365667597189255	-0.0022881976882497693	0.011373582399448722	9.653730525376542	-0.01965379287706498
2.716357	1787824725903108096	0.0012655031617390294	5.5597084879471605e-05	8.719549831126483e-05	-0.012839347962733248	9.78568397794944	0.012613470352235083
2.721616	1787824725909108224	0.002220625350988741	0.0007712702757979663	0.002105666318366251	0.03328733788083461	9.74510759539257	0.0997096145256973
2.727681	1787824725915108096	-0.000523067230242623	-0.0017846143130164631	-0.003952522044153667	0.005982646486696056	9.719928460306173	0.06502201523377509
2.734747	1787824725924108288	0.0012367456360731371	3.157474391643116e-05	-0.0016638166929982949	0.06349838524291493	9.802204930200622	-0.03975024844075961
2.737313	1787824725924108288	0.002966277897311691	0.00031503216778678796	-0.0002594425409684387	0.012965267852436386	9.727651923311763	0.021381880850735533
2.742034	1787824725930108416	0.000979227153323312	0.0012114215143361688	-0.003581257859949549	-0.020888256812348155	9.746730037310893	0.07841740989339505
2.746149	1787824725933107968	-0.0006117866713390302	-0.0001793792158904386	0.0036309354301955624	0.03298072163861911	9.806252841314388	0.011095273164526395
2.752759	1787824725942108160	-0.0005672369007914252	4.765772528008632e-05	0.0010377307401260743	0.07681466234642209	9.765594485606377	0.006476394296149299
2.756772	1787824725945108224	-0.0019130906724425347	-0.0019745884836463567	0.0023910523427257985	-0.00027364121361441937	9.825686159792491	0.060107722028144274
2.759999	1787824725948108288	-0.0007604920488984416	-0.0014160453553206953	-0.0008076856345008484	-0.03258205603043821	9.777962264230936	-0.036388265025042665
2.766078	1787824725954108160	-0.0003073551119599294	-0.00029163228339431453	-0.0023217886693577593	0.015736073069973343	9.777911185307627	-0.01635637339955935
2.769795	1787824725957108224	-0.0018870790074192471	-0.0006023976689711474	-0.0005764559011114886	0.018707449610509328	9.641059096582032	-0.03119672922205967
2.778737	1787824725966108416	0.00027710497651030705	0.0007898151409218284	-0.0009611270147080278	0.0882042585081071	9.80427526959402	0.06054487314259706
2.781199	1787824725969108224	0.000842264895062553	0.0016488335058410819	0.0003024112667723353	0.07559899355076638	9.816639446655554	0.033065159286106344
2.784547	1787824725972108032	0.0002545302830569341	-0.00110175571643794	-0.002970799046037989	0.08287632787103663	9.84621962778226	0.02504685360293517
2.795012	1787824725984108288	-0.0015768554380417414	-0.0011462405934405473	-0.0014830192217429419	0.029496492766645812	9.866761260770746	-0.0022681310288413976
2.798881	1787824725987108352	0.002623482077702852	0.00048107839901361514	0.0016379605422928174	0.09780072913875584	9.773349517667924	0.03191314557162693
2.802304	1787824725990108160	-0.0016406554871457024	0.0016816717281341908	-0.0029204763715966267	0.05381677776297106	9.787311396571987	-0.01616608287897471
2.806028	1787824725993108224	0.00033057031341835423	-0.0012934511082262371	0.0021308415561922737	0.11476404990007052	9.815754159696494	0.053936730406761405
2.811049	1787824725999108352	0.00022409880106115068	-0.00016465909615322424	0.0007943775422401922	0.11041479371047595	9.810733089336223	0.0023091262347133164
2.817836	1787824726005108224	-0.0003609483147707813	0.0006600943899806478	0.0011210595089214974	-0.018213837647254053	9.761791629406789	-0.011436827047541419
2.822940	1787824726011108096	-0.0011565133791347308	-7.629562899711271e-05	0.001347732988472769	0.005140270629524667	9.811463951233405	-0.011306943528171545
2.829412	1787824726017108224	-0.001075199205211759	-0.001859236914359114	0.0013911926454763354	0.14425134691745964	9.710216885146734	0.033673618974315145
2.833945	1787824726023108352	0.001405983806060776	-0.0010202923899375882	0.0012046019300301811	0.06882765647418637	9.728726261332332	0.06143481013782487
2.837791	1787824726026108160	-0.00029381105169898894	0.0018462240846398898	0.00041485393508188445	0.001968203647836189	9.76752715843349	0.08664034445874448
2.842996	1787824726032108288	0.0006674228683702973	0.0014902644318297035	0.004616595825563449	0.006428975384050174	9.6623796806108	-0.018957659532312515
2.850226	1787824726038108160	-0.0003456582293637181	0.0007741177642354263	-0.0014256082091871692	0.0013953359627774838	9.798378985419271	-0.006114001243668586
2.853507	1787824726041108224	-0.000985856109642803	0.0014559023914323113	0.000703226210202306	0.058538633822001286	9.760751975415138	0.09389831521092651
2.855374	1787824726044108032	0.002074513588272659	-0.0002937401227251505	-0.0021833397293286234	0.03271615892125204	9.820089507819361	0.0024913755687464186
2.859846	1787824726047108096	-0.0007630332061187782	0.0002494010602305302	0.0006593056096805576	0.017797115583030664	9.786995955905013	0.015080695183652185
2.868441	1787824726056108288	0.0005517027948331074	-0.002893771592608159	-0.00019752206878078337	-0.07491111406482753	9.763140859830761	0.037302824785617084
2.871546	1787824726059108352	0.0011992993994263217	0.0005251446246296549	-0.0019769831317578454	-0.0043596418751743644	9.718127722194009	0.07664059790100042
2.876844	1787824726065108224	0.0005687137058129353	-0.0003543558379381339	-0.0018693608846438816	-0.0151189901571388	9.854766638965984	-0.006376258330394905
2.884246	1787824726071108096	0.0026053950690995637	0.0033470797124493822	0.00022499895172902243	0.0787000957137387	9.772645537949401	0.07048284794117998
2.885870	1787824726074108160	0.0004406063951044026	0.0015853596368121143	-0.000660646899225749	0.00584370881897631	9.77411563927271	0.08480916748592354
2.893338	1787824726080108288	-0.0010710841663052126	0.0021038434059377914	-0.001223292513278468	-0.025935279005202788	9.74739848728782	-0.03858970996354267
2.896702	1787824726086108160	0.0018734640834991414	0.003981107579803055	0.003262985608063323	-0.06178616166562273	9.766992555170217	-0.06127184490203283
2.901705	1787824726089108224	-0.0022162210449504843	-0.001112181627227646	0.001036664512636675	0.007187053132571154	9.794341267770363	-0.0632884485817017
2.906996	1787824726095108352	-0.0016680212342829214	-0.0014864729749743755	0.0001690014700281877	-0.032532274817947356	9.781354446624611	0.02345375746961373
2.913972	1787824726101108224	-0.0014357523920515548	0.0020511859083676633	0.0011465641347493444	0.006726907697089848	9.79824304480602	-0.009044569580178175
2.920823	1787824726110108160	-0.0011655784050023453	-0.002320100760683114	-0.0013719371668284449	0.077736696726336	9.808848755680234	0.024703163764256023
2.923257	1787824726110108160	-0.00035680146250068615	-0.0003967869686199437	-0.0019665025724607808	-0.052092320771161896	9.80545412744523	0.1269789852137881
2.929509	1787824726119108096	0.0041690365428518755	0.0004652408833098297	-0.0022352836344929315	0.04058853058121437	9.768959739617953	0.05775388206026733
2.935730	1787824726125108224	0.0008441449925872023	0.0014729075817191887	0.000705518517751558	-0.01131804484948512	9.800212314437227	0.01047480332558459
2.937313	1787824726125108224	-0.0017286093844848078	-0.0014221153727073457	-0.0037603608982861823	0.019065924135659953	9.869077134151857	0.0687391391378141
2.943355	1787824726131108352	0.00203948393577272	-0.0003205834878270131	-0.0006312030428817219	0.0477140760307216	9.776155986926177	0.07593069996417562
2.948323	1787824726137107968	-0.000962963409327928	-0.0015671846422868352	-0.0014915986996038827	0.030721580806153483	9.708432738878098	-0.0031527773374253644
2.954550	1787824726143108096	0.0012275047864597286	0.0003703048485484986	2.530652052362643e-06	0.00835483136570099	9.781732670127736	-0.030877807453130603
2.956558	1787824726146108160	-0.0008381108496471446	-0.0014549405099540127	0.0015760127561426178	0.0027608127187961976	9.795563194173347	-0.06482327754164788
2.963721	1787824726152108288	0.0011085519010617885	-0.00030059037846044256	0.001298475451799461	-0.0068968081921963326	9.738416106330321	-0.052606664237819525
2.967875	1787824726155108096	0.0009452252768850751	0.0007082224516206824	-0.0010754517359558196	0.06269940891924328	9.855578871967678	-0.031323531622496806
2.971322	1787824726158108160	-0.0004736511497019874	-0.001492273651679757	0.0004359117679187826	0.026498877589989357	9.76808051336828	0.043954651355215854
2.977609	1787824726167108352	-0.00190454167927885	0.0012715424067493816	0.000358694096694801	-0.01976897606945434	9.843281027181655	0.06185673143399999
2.981332	1787824726170108416	-0.00012033769739514017	0.0006831909811884555	-0.0017018867441823998	0.048712007355065604	9.759424508258242	-0.011490231890131049
2.989310	1787824726176108032	0.0010193622246175052	-0.00047678320327582157	0.0018911451236111702	0.04207194641231598	9.787863718133877	0.10136342356400832
2.990672	1787824726179108096	-0.0028911598873434647	-0.00029232714442744266	-3.3397376371007635e-06	-0.06896325628629617	9.761753260227875	0.056576500099093464
2.997212	1787824726185108224	-0.0020315021937750413	0.0005762939673464345	-0.0014336488150500876	0.030999402884760226	9.672810809612741	0.011259085358194088
3.003858	1787824726191108352	-2.3642125050815014e-05	-0.0018520582475956718	0.003596440303415441	0.04126222932584629	9.758533791190072	0.0737770569894148
3.007667	1787824726197108224	-0.0010886754563313136	-0.0017383362783735812	0.0004284307884651701	0.07615008282088066	9.800663891822817	-0.022977715017114278
3.010326	1787824726197108224	-0.0004350679728016583	-0.0034713035103093063	-0.0017145359107042328	0.0001896043793132053	9.758716326823954	0.028844593266790973
3.017664	1787824726206108160	-0.00032366463679951924	0.00012033658466505934	-0.0006480014266105828	0.0560705459460381	9.82076222876071	0.11122407059511058
3.023706	1787824726212108032	-0.0005694827845648853	-0.0008116950454133111	-0.0030289402284488513	-0.012235374044264502	9.776573820983497	0.0352479898172397
3.028390	1787824726215108096	0.0006190185624437782	0.0011752409681223396	0.0014215678469033529	0.031023599183384917	9.80198262832544	0.03069426488658799
3.032218	1787824726221108224	-0.0013381236707067487	-0.0018462488805886747	-0.00023752469693714658	0.055385786763956855	9.772077091191136	0.04796767383712655
3.039415	1787824726227108352	0.0011531408548585665	-0.0014949089975381177	-0.00018300028756250777	-0.031987891798842275	9.777918021475154	0.009951077517176072
3.046449	1787824726233108224	-0.0015169879142350802	-0.0009305149756992993	-0.0008079572364869001	0.10060783218770929	9.805925573262249	0.013482179356179902
3.048556	1787824726236108288	0.0006725163809599321	0.0028930196694742422	0.0012077604092300932	0.02785337754141857	9.751371726115421	-0.012074777014104275
3.053448	1787824726242108160	-0.0017107263722142467	0.0009532392328461176	-0.0012362580852933625	-0.045998753000932244	9.71472284772762	0.06784049846185757
3.058665	1787824726248108032	-0.0022173009135792203	0.0012223252841449955	0.0014697529729939354	0.08870451556437337	9.806393456027362	0.004425595758002533
3.063085	1787824726251108096	0.0010153371468453343	-0.0006778522949088331	0.00089662525029973	0.036335835563536235	9.841199750185005	-0.013915507692740317
3.068079	1787824726257108224	0.001419251079000462	-0.0019908252928076482	0.0010478303275365576	0.019405527557631377	9.722898847239726	-0.06895702766559746
3.071243	1787824726260108288	-0.0017466604669450286	-0.00023726555374633181	-0.0021177305801840037	-0.0014461286863258066	9.770749246781184	-0.05174114135749196
3.077545	1787824726266108160	0.00022256865826078716	0.0023285424477970705	2.2144530493717975e-06	-0.08393829744225756	9.775898614257487	0.028379916703967074
3.084383	1787824726272108288	-0.00041318366807762633	0.0014363570798936538	0.0012451896664425232	0.001425185879236953	9.810058361450574	0.053409169890354234
3.084883	1787824726272108288	-0.001121181530042767	0.003317490611327773	-0.0009187390010329368	0.07477089969839625	9.728169912843	0.08632840092187544
3.096157	1787824726284108288	0.003033033965645467	0.0006502035192088807	-0.0003760156299677308	0.00015300859369594966	9.76086388666302	0.036147434123921705
3.097714	1787824726287108096	-5.2920566258473e-05	0.0006474874242181878	0.001735370374837403	0.0466507157444214	9.799559534652598	0.06569432258102251
3.104084	1787824726293108224	-0.0011292543425345419	0.002326917803600418	-0.002796841231537242	0.03773384098658049	9.7101057234277	0.057592807558411306
3.108673	1787824726296108288	-0.002674222575177431	0.0002546586704830089	-0.0015185385558430036	-0.002706372290230321	9.708800969004749	0.08017928429296567
3.111756	1787824726299108352	0.0015603102107828372	0.0007967153234344193	-0.0018811932233873232	0.1008623412485842	9.828697541769298	0.007183737259807966
3.121177	1787824726308108032	0.0013097867604984152	0.00041499862328657803	-0.0005442899382006588	-0.0119633844679993	9.842714502265654	0.028239388894681857
3.125345	1787824726314108160	-0.0033905728272082274	0.0009542711155347955	0.0036048349899987777	-0.027433632138504346	9.795062893821845	0.009992941563145844
3.127371	1787824726314108160	-0.0024219122761897833	-0.0006971187833832711	0.001220964990237355	0.022569472790606265	9.724791689323574	-0.015677322296764176
3.131261	1787824726320108288	0.0011278747203360832	-0.0009707009881394569	-0.00277171337801233	0.010395463896874629	9.795074124217432	0.05574725811246665
3.137765	1787824726326108160	0.003001603067944139	-0.00022002109668509462	-0.0016971460328379369	0.006075119158474439	9.808916784195054	0.06008578133516911
3.142990	1787824726332108288	0.0013459115859338888	0.0004844103269426909	0.0031481390679878735	0.08143542471179933	9.702598354045065	0.07920630384292322
3.147747	1787824726335108352	-0.0024702888303442727	0.0017389683623492734	-0.0009518445580359062	0.029802296859720745	9.779240821634827	0.04701057477939022
3.153129	1787824726341108224	-0.001284648507570313	0.002080872901742538	0.002304142482699965	0.06701640020356064	9.805428060432908	-0.04177598607753181
3.156590	1787824726344108032	-0.0021128694322476373	0.0011681813193602246	0.0006997872845477516	0.07467473530367714	9.830492540260504	0.0696840167398258
3.159059	1787824726347108096	0.0020620433652965772	0.003064017731447505	-0.000876003167262337	0.0517518687880146	9.791514670358632	0.05320178453208984
3.167613	1787824726356108288	-0.0004681696324812686	0.0006706746370793805	0.0008278149521246121	0.06461770720230084	9.812251273630771	0.0283020777060098
3.169667	1787824726359108096	0.00022585396007883325	0.0007186734622036503	-0.0007873090970420894	0.040815725535215015	9.797679344867399	-0.045082111084393944
3.176880	1787824726365108224	-0.001319099440887174	-0.0018207151179366677	-0.001964581435321365	0.0801655734340725	9.869828934319013	0.03448048385153302
3.180783	1787824726368108288	-0.0005584941745124695	-0.0019340851330549985	0.00018033995326657436	-0.029826266640518413	9.82906585396611	-0.005353007535309345
3.184961	1787824726374108416	-0.0013143240532595532	-0.001637565022601214	0.0023535751789635125	0.019161081154821537	9.871347275943034	0.046361347668080116
3.192733	1787824726380108032	-0.0012356962642451283	-0.0015313385559962266	-0.0021465745387232262	0.08974002257714794	9.6864639454434	0.07197131911216767
3.197910	1787824726386108160	0.002614733190988339	-0.002188820176738818	-0.0008344362141496657	0.017866942112570592	9.816055699051978	-0.038241841500156554
3.199925	1787824726389108224	2.8556852535436766e-05	-0.0028721777318995952	-0.0016052221310427677	-0.017570644099218997	9.82095986699001	0.057172673054743973
3.210739	1787824726398108160	-0.00028860372890835296	0.00016870018223587904	0.0008124428146809701	0.09047983962309597	9.787471387135321	0.07128066810714584
3.213866	1787824726401108224	0.0009137029882086894	-0.0008621172449615717	0.0021002379267293053	0.049493770914360954	9.759285916869283	-0.006642931473131736
3.216020	1787824726404108288	0.0020377736928935465	3.25336282913048e-05	0.0019250842975413807	0.050897731681616196	9.775990393280257	-0.062202214158136065
3.222099	1787824726410108160	-0.001699437915015448	-0.00502081640715197	0.0011853278399269955	0.041251852531246885	9.83944428891375	0.01085848428035955
3.229120	1787824726416108032	0.0005520386371373814	0.0008412586796255501	0.0012991077668877576	0.0115114306074581	9.732511268451812	0.04275810240901963
3.232840	1787824726422108160	-0.0013252580107819929	0.003715648441259487	-0.0015004193218636152	-0.0015137158312635464	9.808996483652676	0.022788124781941414
3.236557	1787824726425108224	-0.0007212740420980041	0.0016707084657935016	-0.0026087001024233548	-0.052561088048682314	9.816937707370707	0.021345416899967655
3.242087	1787824726431108352	0.0002853369002490518	-0.0020780168628944987	0.0034583678410564176	0.006149302604871759	9.675372771311979	0.0028233036716606152
3.249146	1787824726437108224	-0.0002614720973680669	0.003175010855253012	-0.0018219973138184423	0.07506354937002095	9.821424122483283	-0.011697498379227358
3.254049	1787824726443108352	-0.00033284434818131576	0.0023187026611763057	0.00014747820388221318	0.057037927978905945	9.747370704029702	0.07754106594159133
3.257268	1787824726446108160	-0.0025974111070165362	8.514005973484789e-05	-0.00268277081300034	0.031711705079538736	9.846360257186337	0.058610459183447615
3.260877	1787824726449108224	0.002895444635708491	0.0016578852482695893	0.0012840604567167162	0.061117853334685245	9.79727662569045	-0.024702677477596482
3.270555	1787824726458108160	0.0014419831667645767	0.0018266074005000223	-0.0011975910547247963	0.005972155633715483	9.783958302069777	-0.04581554813764337
3.272630	1787824726461108224	0.0031619804968074966	0.0017868572789890875	-0.0003482520557596061	0.04506774323672902	9.764517697690954	0.049502838433366475
3.278942	1787824726467108352	-0.0016954484387332448	-0.0016854318844542581	0.0015694683180457593	0.04335652714127007	9.781625875859588	0.022018973430501427
3.282372	1787824726470108160	-0.0002746108414123698	-0.0010003723384171001	-0.00042916125382226085	-0.008434145361032264	9.735198475979885	0.022470956566169896
3.288579	1787824726476108288	-0.0007661170589805044	0.0008682397612868048	-0.0018906229178025156	0.10086014510146868	9.759575812722057	0.09218846244862869
3.292207	1787824726479108096	-0.0011190379277718026	0.00022319758308509283	0.0006427661791947364	0.07198320332234157	9.829465279643777	0.009775856170909824
3.298115	1787824726485108224	0.00030566089523716486	0.0007742060161134177	0.0014781329405112618	0.021676020402887686	9.826942770565402	0.06760481356961243
3.304298	1787824726491108096	-0.00039068635342986454	-0.0005037569232554905	0.002524379826090942	0.0768009187140297	9.693788453536037	-0.05721436791395822
3.307954	1787824726497108224	-0.002905694210097916	-0.0014585958756827533	-0.0009965870004127618	0.055031208069818954	9.732509430022542	0.012114120896426859
3.311983	1787824726500108288	-0.0009390061962391749	0.000736644201212885	0.0001783471485677502	0.10081935874044681	9.74544101567451	0.0071043043220584395
3.319519	1787824726509108224	-0.002624017099626593	-0.0009239865440551556	-0.0019228741411316894	0.007669073303832558	9.760812887854103	0.023317641019134756
3.322575	1787824726512108032	-0.0005255460590303965	0.001521166920052474	-0.002154701468703168	0.002632085017982188	9.805831669742224	0.054932766656986605
3.326853	1787824726515108096	-0.0007018772881502485	-0.00030586691071895686	-0.0016895648854734575	0.0226969631926495	9.751193084524242	-0.024180693469141645
3.330994	1787824726518108160	-0.00347670576413558	-0.0004878278392365132	4.990609362683802e-05	-0.04950334585224028	9.744003536150103	0.054630393632555695
3.335193	1787824726524108288	0.0003189396896143302	-0.002726316230217118	0.0003492369622822983	0.012469227112944011	9.811150156726226	-0.011530578049532305
3.341531	1787824726530108160	-0.0002894198864066455	-0.002257776643126712	0.00042409353088894425	0.02657605776228461	9.743971477193009	0.03429916371009933
3.348612	1787824726536108288	0.0022249783310044216	-0.0010123293367117602	0.001129039193675273	-0.011065831233637385	9.791392280936256	-0.015397531147888478
3.351506	1787824726539108352	-0.0014076265959170485	-0.0024390607832679126	-0.0007440657510680725	0.02428641634065793	9.750457655167263	0.048609244914282736
3.358392	1787824726545108224	0.00011581864153665775	0.00033426460061641394	-0.0007236202346945276	-0.007979617825346792	9.716904086086831	0.036928988427147404
3.360788	1787824726548108032	0.0012120235877206116	-0.0011986580364726086	0.0002122048329248939	0.051347480979807875	9.794998726656019	0.073075384326659
3.369349	1787824726557108224	0.001870082085817306	-0.0011598126196372364	0.000796585048769745	0.01769474878061836	9.806750079669582	-0.01911155918369719
3.371268	1787824726560108288	-0.0018877897766573402	0.0013356703941948384	0.0016334804109281863	0.05795222718603524	9.718128317057012	-0.012234911898421706
3.376359	1787824726563108096	-0.0006542122268501963	0.0014820243030087069	-0.00062050451400398	0.0167783766088088	9.806646312221066	0.04720859514312961
3.384339	1787824726572108288	-0.0006485822869432935	0.0006913259655325843	6.979855421258225e-05	-0.014332310700374384	9.810310441138421	0.024982798629806822
3.386281	1787824726575108352	0.0008275135745616987	0.0017848491403547682	-0.0009320944788224438	0.07712933778413442	9.697619679950394	0.03741056902223315
3.389939	1787824726578108416	-0.0025956221950246753	2.384344875745098e-05	-0.0005541532487512669	0.017258298358295756	9.7506697558237	-0.012571666543122806
3.411688	1787824726599108096	0.00044514095276788	-0.0007780020310852224	5.2532454375854736e-05	-0.02697477145587235	9.849487098158097	0.06952215673900958
3.417099	1787824726605108224	0.0006477067098348273	-0.0005527281211114952	-0.00010218109393673788	0.13882126259581462	9.78960319298618	0.010082133286879829
3.423560	1787824726611108352	-0.001993884400647941	0.0011471248835071034	-0.0037064137479077297	0.025827943011745715	9.764872568196216	0.03012468579415358
3.428127	1787824726617108224	0.00178038572547296	-0.00016871574825306858	0.004725413029363467	0.030378566902520023	9.833920151230757	0.031225106955310764
3.433704	1787824726623108096	-0.0033451087998901644	0.0007508797002108767	-0.0027664998011281998	0.022538054787955515	9.826525870858369	0.03916409059222366
3.437835	1787824726626108160	-0.0005220755487750964	-0.001485086117683997	0.000558450788548918	0.07244864023281203	9.74399721123434	0.04581967939346546
3.440859	1787824726629108224	0.00039493224293410975	-0.0006951410922668219	0.0028412761044681253	-0.03917898456930581	9.826566682539855	0.002439951919464854
3.446432	1787824726635108352	-0.001251344613956992	0.000941796639230179	-0.0014624020420304041	0.008825573312694502	9.74289654599642	0.0492961007218254
3.451945	1787824726641108224	0.0008870018842741114	0.0005382063676668707	0.001476304300295286	0.02293491428191861	9.81939285251163	0.015858634380449137
3.457515	1787824726647108352	-0.001261654160126226	0.0007958102328764011	-0.000680232281798251	-0.030839643139455766	9.817577249633764	-0.0037247427746059762
3.463044	1787824726650108160	-0.0009915032817003598	-0.0005194036296270969	-0.001469026236827024	0.048089470079193786	9.790886552804322	-0.04105792130030559
3.469048	1787824726656108032	-0.0012129256674113349	-0.0006962744310061994	0.0008201631862247607	0.02688630379776188	9.764424663669224	-0.012309214236673367
3.473359	1787824726662108160	-0.0006650479857517913	-0.0022873174670061122	-0.0005623204590390551	0.08008280213664286	9.825115977503962	-0.004457084650709275
3.479295	1787824726668108288	0.002361465096688232	0.0033766616060421817	-0.00023847039262501313	0.01506920228202923	9.82513511023708	0.034438874466769666
3.480232	1787824726668108288	-0.0003056829242257539	0.0005863269179030979	0.00044974909608072095	0.010564771636078687	9.770351396204227	0.07362976205585076
3.488472	1787824726677108224	0.0009167142757690196	0.0002432465860485731	0.002421387637169308	0.03241076179990315	9.82840851208547	-0.017526737251747228
3.492860	1787824726680108288	-0.002516645759496456	-0.0008627928194446815	0.0020122099749886853	-0.09578325053684518	9.80962037291717	0.059901579895268016
3.500215	1787824726689108224	-0.0008816520644068651	-0.0031986512029350505	0.0039049572487488762	0.047102310788924795	9.753105494258545	0.08122660674051249
3.504667	1787824726692108032	0.003137311114643832	0.0009335297603204677	0.0006948204668181454	0.007893598232516705	9.72771140113014	0.048104171641866714
3.508965	1787824726698108160	0.00047940289720888355	0.0011790389882891602	-0.0006776063834823701	0.07334364263404325	9.832072566851235	-0.015934428273846016
3.512472	1787824726701108224	-0.0008726216883006844	-0.0017823175167025463	0.0029388919512009248	-0.014520773289733453	9.757214675928255	-0.05464901900891547
3.519576	1787824726707108352	-0.0027635572228546525	0.0009437488091505995	0.0005720942988042665	-0.08008557858981812	9.799728011815338	-0.013530315423264716
3.522821	1787824726710108160	-0.0027499559060004826	-0.0001677056171425137	-0.0001218431488998745	0.04310259068456228	9.71961487404164	0.034744553523503155
3.526241	1787824726713108224	0.0009028479194328158	0.0005390191599432558	-0.0006764117199412189	0.02752960635867047	9.770165287008055	0.01113469040082996
3.534120	1787824726722108160	0.0003211279620591702	-0.0001711798294719666	-0.001939490211067253	0.015597899419501616	9.793401493359253	-0.01753427504998894
3.538275	1787824726725108224	-0.002589117933944806	0.0002488596417049481	-0.0001796019885032711	0.035905476461321514	9.76062212560955	0.019835035695741982
3.543825	1787824726731108096	-0.0006184821138401215	-0.0011051245479857595	0.0005632920402786563	0.06234884190792104	9.769240352317276	0.042993760741897064
3.550600	1787824726740108288	-0.0030026674132296927	0.00027576141643527864	7.030311850779469e-05	-0.025194689727343296	9.774059057804166	0.13202316584890206
3.551100	1787824726740108288	-0.0016555696683437265	0.0012246116484576175	0.002119484902334617	0.046384942137681524	9.687995520873367	0.033274543719550034
3.559219	1787824726746108416	-0.0008230363556459155	-0.0010599573414324787	0.003163545563199291	-0.01660177720978774	9.779944699631725	0.04022746685724612
3.562510	1787824726752108032	-0.0024817920829888376	-0.0017106494773408937	0.002147420085521715	0.07053492141555501	9.80416499657779	-0.03115599001656877
3.565919	1787824726755108096	-0.0003359017092115467	0.00032343705024791736	-0.0012357727438427094	-0.0208026475291316	9.797762146563214	0.047716971735277836
3.572264	1787824726761108224	0.003496750903756874	0.0007427090938052554	8.921180682477117e-05	-0.023703663639770646	9.74779555573687	0.011962501370731446
3.575916	1787824726764108288	0.0008395788196909137	0.0017643916851715932	0.0009287920107859818	-0.021071229605343043	9.792405596312102	0.0014886354520310674
3.583031	1787824726770108160	-0.0010752762479577921	-0.0027572041248105474	-0.001224154144377561	0.07164200200085616	9.748902480350466	0.03713581964564308
3.587615	1787824726776108288	0.0004786645211409355	0.0022341144949218567	0.0008606873241503534	-0.019201090612349904	9.7952032144865	0.04433104113891063
3.593151	1787824726782108416	0.0008635227845396324	-0.0004794158330814893	0.0014253343227119348	0.10016550326805937	9.762576878511753	0.03194297445109875
3.596145	1787824726785107968	0.0015494032681504682	-0.0006457467790792839	-0.000949598546619956	0.034914035258686985	9.884752160423883	0.0678207675568673
3.603015	1787824726791108096	0.00021576775801449103	-0.0009999428800138881	0.0003389721755865648	0.07655779194785269	9.72278421607357	0.1157145960473736
3.607463	1787824726794108160	-0.002096112208856442	-0.00014103473640210691	-0.0018476989305712037	0.0019296590880194461	9.753645254147917	0.05269886007379566
3.612715	1787824726800108288	-0.0019708236973332146	-0.0005870837072146078	0.0018010333209547214	0.009927199892459685	9.74338988917408	-0.01944214195171238
3.619955	1787824726809108224	-0.0009034053970308232	-0.0006808051387308296	0.0015377888110270313	-0.07314173053774442	9.84691500383089	-0.0028070698828123915
3.624917	1787824726812108288	0.0007858469458062571	0.0008654126673775847	-0.0014169207445970942	-0.01956869613462512	9.725711149824862	-0.04637171321297687
3.630325	1787824726818108416	-0.002665489075460219	0.0020142974391262605	-0.0028888128991309795	0.02514574676745297	9.756075540099076	0.04255290348527892
3.634879	1787824726824108032	0.00249922440947855	0.00014893275818457505	-0.00045220341495462484	0.037600800463107584	9.745780514371011	-0.05414757803672196
3.639235	1787824726827108096	-0.005114000315078808	-0.0012434739156533465	-0.0005222818856521166	0.05618157777113731	9.808793129964233	0.07902579798975615
3.642585	1787824726830108160	-0.0028842918647503215	-0.0032465479354807504	-0.00022857048585512505	-0.021312125405917065	9.853842061481162	0.06371966194259522
3.646932	1787824726836108288	0.0008878431941411812	0.0036812019122295287	-0.0020798667524479742	0.07127441126590492	9.772490996446518	0.0682408441684162
3.651494	1787824726839108352	0.002187892136426694	-0.00028532522809101223	-0.0015119963184976762	0.11078069634080906	9.803842141728282	0.05879649262829653
3.656645	1787824726845108224	-0.0012912664022233977	-0.001368829922583738	-0.001299875099070806	0.05733619099751296	9.816848727036774	0.023788099507929573
3.663943	1787824726851108352	0.00015779625461910762	0.0011963353637698684	-0.0004502690132722602	0.08168507357968063	9.804787381471403	0.03881603526941878
3.668036	1787824726857108224	-0.0013098573681168525	-0.0006676980570071746	-0.00026382823477651943	0.09491755256133014	9.79552456818481	-0.047875312370387405
3.672121	1787824726860108032	-0.0015629911780428694	0.00040840557419041226	0.002233161044215735	0.04733330852876872	9.794371061245768	0.027265335611920197
3.676681	1787824726866108160	-0.0028795515798660893	0.0012137934426895416	-0.0004955979599987578	0.03329442338943726	9.815941370222397	0.017608415056098635
3.681353	1787824726869108224	-0.00069124637822423	0.0013183723837191053	0.0022329420293682903	0.08957182178678331	9.803409607051789	0.12456384907968378
3.685995	1787824726875108352	-0.0007601710137438274	-0.0007625757295199651	-0.0005917340085112219	0.06409181174384378	9.784562637126049	0.017551712283777405
3.693243	1787824726881108224	-0.0018814472585266682	-6.938702408421665e-05	-0.0020661477730587285	0.07637795869709929	9.723687092465907	-0.049221654793053196
3.695791	1787824726884108288	-0.0009513925179469478	0.0006955767072688602	-0.0007833426543141409	0.036039032079376906	9.771805042277222	-0.0035321972977747536
3.701224	1787824726890108160	-0.0016258962794258663	0.0014796469594303273	0.0012501975314748778	-0.03948513590285076	9.814669039240963	0.023432644342222204
3.708251	1787824726896108032	0.0009651514662965419	0.0008745807196270573	0.005625367704566807	0.1098479037744242	9.750152176310719	0.07523815551076332
3.714558	1787824726902108160	0.001332973911701441	0.001004509398528504	-0.0014503266435783372	0.04804490188992558	9.725579475614564	-0.013503851936145068
3.715997	1787824726905108224	0.0002995136010985195	-0.0015965628546922267	0.00026460729912332706	0.08373725410988166	9.75623048311878	0.01815554632630402
3.723032	1787824726911108352	0.0035924763186200447	0.0009621503692904092	0.000249536374100552	-0.023701807585643837	9.779366756202565	0.05500348244251489
3.727521	1787824726917108224	-0.00032431237565021373	0.0022464566167004173	-0.0014279457583838986	-0.018484929442408385	9.693465723283971	0.05501387295084819
3.734716	1787824726923108096	0.0026027495732228218	-0.00048588842697900984	-0.0008130587697846448	0.10455420498677871	9.887028652142117	0.03887050300299948
3.738772	1787824726926108160	-0.002606877398820926	-0.0015761492541805477	-0.0006413344497312387	0.09235971146630141	9.784991336606794	-0.0361996843736552
3.741859	1787824726929108224	0.0006259605860079951	0.0007278255934975727	0.0014352910778074395	0.006706717719263011	9.753530365936697	-0.015022317080075814
3.747189	1787824726935108096	0.0003056037815743564	0.00016966362394306103	-0.001567164796757642	0.09636031131527759	9.743326133962208	0.10275651873424434
3.755144	1787824726944108288	-0.0026249188893869074	0.001065694618667003	-0.00010415158356065732	-0.04355068664357206	9.718903059745351	0.011027939752201265
3.755644	1787824726944108288	-0.002073583134770351	-0.0017342624519688658	-0.00035071956575306797	0.01822788736340229	9.872680792428834	-0.012331748742358525
3.762425	1787824726950108416	0.00039191915644516673	0.0005301331987384735	-0.0006050041704764699	-0.0449641723351944	9.739287316989879	0.011470325275355683
3.766481	1787824726953108224	-0.00015445300724021324	-0.0002926381202598624	-0.0010377922611445527	0.06484324663135388	9.73362775825168	-0.016663337319496617
3.770773	1787824726959108096	-0.0036461382817780195	0.0007215495075559479	0.0017763263955639576	0.00464783364603338	9.774728004444428	0.010687669551833699
3.778943	1787824726968108288	-0.0016569725645267624	0.003474901196609869	-0.001914036207800964	-0.030122941282177525	9.729805584615837	0.02113367993548475
3.785012	1787824726974108160	0.0005164043138135889	0.00017791277007280854	0.002961032017389174	0.005161031562889301	9.775465216291847	0.014632781514392724
3.787423	1787824726974108160	0.0013870499130588271	-0.001493060983517296	-0.0004644348855082805	0.0028321568758251925	9.786959538031615	-0.02394145106886047
3.794795	1787824726983108352	0.0006773584792640707	0.0013580964411168352	-0.0008435838554059498	-0.03809172186347187	9.657634466905503	0.03142479264130987
3.799213	1787824726986108416	-0.001401263959006893	0.002663724703124601	-0.0018507045844808636	0.03283893036799777	9.815036231712975	0.06155721930556449
3.804355	1787824726992108032	-0.000261695378164346	0.0004734769715472694	0.0030187750327816333	0.031084622521508884	9.795776106479742	0.07987236106569129
3.804855	1787824726992108032	-0.004014533731478203	-0.00018703096871330651	0.0007588895211100852	0.07781040648241014	9.757749892606732	0.024236670239883087
3.814503	1787824727004108288	-0.0010783471736689585	-0.0005403569686817042	0.0008689273957054183	0.013568296328315325	9.71309212914416	0.07527379741107026
3.818543	1787824727007108096	0.0008860503768020317	0.0006474878147049404	-0.0010762757058887585	-0.021031098575985514	9.790261329651374	0.04304833967418786
3.822562	1787824727010108160	-0.003731990883498572	0.0008157250274380762	-0.0016333784020317493	0.11335391739286145	9.785425077767304	0.011836383905343074
3.829438	1787824727016108288	0.0002378927541225891	5.8063361392456125e-05	-0.002443982158479176	0.06057648523914503	9.772077872725225	0.06137592933538033
3.829938	1787824727019108352	0.0010111868984491563	-0.00012126201074477502	-0.0026943516714845856	-0.015595116836440985	9.860326625548971	0.05711000986067568
3.837764	1787824727025108224	0.0007692140110527549	-0.001246443171658227	0.0026411415551370583	0.03696030793495077	9.797660852464528	-0.020629417938642064
3.841881	1787824727031108096	-0.0004178918855536642	0.0033188532058359495	-5.759221076355011e-05	-0.04734400188749237	9.793090684115445	0.034175261775101475
3.847219	1787824727034108160	5.174167805676364e-05	-0.0014358713239566226	-0.001753598030565996	-0.03453333364636372	9.781917781465879	0.028114889611331503
3.850817	1787824727040108288	-0.0008397853727106675	-0.000859379738432872	-0.0004636121119832517	0.03572823875999387	9.728558817010347	0.08071576253314808
3.856607	1787824727046108160	0.0008514255676960026	0.0003498872629376725	-0.0005779495243520203	0.1416698552303304	9.743322292250523	0.02404282839923326
3.862976	1787824727052108288	0.0013021384212352227	0.0023174287540915924	-0.003301516878333902	0.029490042158362068	9.761441151230704	0.04066901419723943
3.870571	1787824727058108160	-0.0009046960709718236	-0.0001906380470784646	0.000883938122186766	0.060204660085232016	9.76570229491665	-0.009574111336375472
3.872599	1787824727061108224	-0.0008799105397352019	0.002199042427361742	-0.0013269371004385445	0.028309923489077866	9.833626895261107	0.07932250755778664
3.877617	1787824727067108096	0.0018902552855724834	-0.0008524914070510921	-0.005302449985727388	-0.017802700220496105	9.780017686948392	0.06793589162789873
3.881080	1787824727070108160	0.0010774677948788521	0.0003441753539997327	0.0015292514458997253	0.016042249175740327	9.848693913221547	0.0184183861866281
3.885999	1787824727073108224	-0.002594887854541782	0.00013542688451984933	0.002746518012693194	0.059167285493352394	9.726545258120144	-0.0005904272322359606
3.892017	1787824727079108352	-0.002261610694315307	-0.0006742966002207591	-0.0025766829040541643	0.038723564730783464	9.80856049286879	0.04572849713568605
3.895077	1787824727082108160	-0.0019917818698132767	0.0011827478390610449	-0.00041552721044091676	-0.003044318076988354	9.770443649003559	0.0052094249112753545
3.900851	1787824727088108288	-0.0001714540081807366	-0.002650476743357327	-0.0009605708504543443	0.01506390617903002	9.80789646920725	0.08633321966234184
3.906555	1787824727094108160	0.0013404584186329502	-0.0007113520373574296	0.0012190885255860975	0.06185605924183621	9.794465918742377	0.03602091025336157
3.912920	1787824727100108032	-0.0009206751609511562	0.0028563917082151612	6.562914804988327e-05	0.07776926579794896	9.76115886098109	0.022705080554763828
3.917022	1787824727106108160	7.266540937810263e-05	0.00023678829795448575	-0.00022468277491721127	0.004475844513399774	9.846918624240644	-0.036045715735475395
3.922801	1787824727112108288	-0.0003191620417995972	0.000420238938199461	-3.2464174286576876e-05	-0.06958127224897755	9.804802795070449	0.0019940398818427615
